Ms	Code	A0	CA	MA	T	AX	AY	AZ	GX	GY	GZ
0	20	0.00	0	-0.03	29.60	0	0	0	0	0	0	
71	20	0.00	0	0.41	29.60	0	0	0	0	0	0	
124	20	0.00	0	0.41	29.60	0	0	0	0	0	0	
177	20	0.00	0	-0.21	29.60	0	0	0	0	0	0	
229	20	0.00	0	-0.38	29.60	0	0	0	0	0	0	
282	20	0.00	0	-0.21	29.60	0	0	0	0	0	0	
335	20	0.00	0	0.24	29.60	0	0	0	0	0	0	
391	20	0.00	0	0.24	29.60	0	0	0	0	0	0	
443	20	0.00	0	-0.03	29.60	0	0	0	0	0	0	
495	20	0.00	0	0.24	29.60	0	0	0	0	0	0	
549	20	0.00	0	-0.12	29.60	0	0	0	0	0	0	
601	20	0.00	0	0.15	29.60	0	0	0	0	0	0	
653	20	0.00	0	0.33	29.70	0	0	0	0	0	0	
711	20	0.00	0	0.59	29.60	0	0	0	0	0	0	
765	20	0.00	0	0.86	29.70	0	0	0	0	0	0	
817	20	0.00	0	0.68	29.70	0	0	0	0	0	0	
870	20	0.00	0	0.06	29.70	0	0	0	0	0	0	
922	20	0.00	0	-1.09	29.70	0	0	0	0	0	0	
979	20	0.00	0	0.24	29.70	0	0	0	0	0	0	
1031	20	0.00	0	0.24	29.70	0	0	0	0	0	0	
1084	20	0.00	0	0.59	29.70	0	0	0	0	0	0	
1136	20	0.00	0	0.24	29.70	0	0	0	0	0	0	
1190	20	0.00	0	0.50	29.70	0	0	0	0	0	0	
1242	20	0.00	0	0.68	29.70	0	0	0	0	0	0	
1298	20	0.00	0	0.24	29.70	0	0	0	0	0	0	
1351	20	0.00	0	-0.03	29.70	0	0	0	0	0	0	
1407	20	0.00	0	-0.21	29.70	0	0	0	0	0	0	
1459	20	0.00	0	-0.21	29.70	0	0	0	0	0	0	
1512	20	0.00	0	-0.47	29.70	0	0	0	0	0	0	
1564	20	0.00	0	0.24	29.70	0	0	0	0	0	0	
1621	20	0.00	0	-0.03	29.70	0	0	0	0	0	0	
1673	20	0.00	0	-0.38	29.70	0	0	0	0	0	0	
1726	20	0.00	0	-0.56	29.70	0	0	0	0	0	0	
1779	20	0.00	0	0.24	29.70	0	0	0	0	0	0	
1832	20	0.00	0	-0.38	29.70	0	0	0	0	0	0	
1884	20	0.00	0	0.59	29.70	0	0	0	0	0	0	
1940	20	0.00	0	-0.47	29.70	0	0	0	0	0	0	
1993	20	0.00	0	0.06	29.70	0	0	0	0	0	0	
2046	20	0.00	0	-0.64	29.70	0	0	0	0	0	0	
2101	20	0.00	0	0.06	29.70	0	0	0	0	0	0	
2154	20	0.00	0	-0.29	29.70	0	0	0	0	0	0	
2211	20	0.00	0	-0.47	29.70	0	0	0	0	0	0	
2263	20	0.00	0	-0.21	29.70	0	0	0	0	0	0	
2316	20	0.00	0	-0.47	29.70	0	0	0	0	0	0	
2368	20	0.00	0	-1.70	29.80	0	0	0	0	0	0	
2421	20	0.00	0	-1.35	29.80	0	0	0	0	0	0	
2474	20	0.00	0	-1.35	29.80	0	0	0	0	0	0	
2530	20	0.00	0	-1.62	29.80	0	0	0	0	0	0	
2583	20	0.00	-1	-1.53	29.80	0	0	0	0	0	0	
2635	20	0.00	-1	-1.62	29.80	0	0	0	0	0	0	
2689	20	0.00	-1	-1.70	29.80	0	0	0	0	0	0	
2741	20	0.00	-1	-1.88	29.80	0	0	0	0	0	0	
2797	20	0.00	-1	-1.00	29.80	0	0	0	0	0	0	
2853	20	0.00	-1	-1.62	29.80	0	0	0	0	0	0	
2906	20	0.00	-1	-1.53	29.80	0	0	0	0	0	0	
2959	20	0.00	-1	-1.35	29.80	0	0	0	0	0	0	
3011	20	0.00	-1	-1.09	29.80	0	0	0	0	0	0	
3065	20	0.00	-1	-1.44	29.80	0	0	0	0	0	0	
3117	20	0.00	-1	-1.35	29.80	0	0	0	0	0	0	
3173	20	0.00	-1	-1.00	29.80	0	0	0	0	0	0	
3226	20	0.00	-1	-1.09	29.80	0	0	0	0	0	0	
3279	20	0.00	-1	-1.44	29.80	0	0	0	0	0	0	
3332	20	0.00	-1	-1.00	29.80	0	0	0	0	0	0	
3384	20	0.00	-1	-1.09	29.80	0	0	0	0	0	0	
3443	20	0.00	-1	-1.26	29.80	0	0	0	0	0	0	
3496	20	0.00	-1	-0.56	29.80	0	0	0	0	0	0	
3549	20	0.00	-1	-1.62	29.80	0	0	0	0	0	0	
3602	20	0.00	-1	-1.00	29.80	0	0	0	0	0	0	
3654	20	0.00	-1	-1.35	29.80	0	0	0	0	0	0	
3708	20	0.00	-1	-1.17	29.80	0	0	0	0	0	0	
3764	20	0.00	-1	-1.00	29.80	0	0	0	0	0	0	
3816	20	0.00	-1	-0.73	29.80	0	0	0	0	0	0	
3869	20	0.00	-1	-1.09	29.80	0	0	0	0	0	0	
3922	20	0.00	-1	-1.09	29.80	0	0	0	0	0	0	
3975	20	0.00	-1	-1.26	29.80	0	0	0	0	0	0	
4027	20	0.00	-1	-1.00	29.80	0	0	0	0	0	0	
4083	20	0.00	-1	-1.00	29.80	0	0	0	0	0	0	
4139	20	0.00	0	-0.47	29.80	0	0	0	0	0	0	
4192	20	0.00	0	-1.09	29.80	0	0	0	0	0	0	
4244	20	0.00	0	-0.56	29.80	0	0	0	0	0	0	
4297	20	0.00	0	-0.64	29.80	0	0	0	0	0	0	
4350	20	0.00	0	-0.73	29.80	0	0	0	0	0	0	
4406	20	0.00	0	-0.64	29.80	0	0	0	0	0	0	
4459	20	0.00	0	-0.73	29.80	0	0	0	0	0	0	
4511	20	0.00	0	-0.73	29.80	0	0	0	0	0	0	
4564	20	0.00	0	-0.73	29.80	0	0	0	0	0	0	
4617	20	0.00	0	-1.00	29.80	0	0	0	0	0	0	
4669	20	0.00	0	-1.00	29.80	0	0	0	0	0	0	
4725	20	0.00	0	-1.17	29.80	0	0	0	0	0	0	
4779	20	0.00	0	-0.64	29.80	0	0	0	0	0	0	
4834	20	0.00	0	-0.73	29.80	0	0	0	0	0	0	
4886	20	0.00	-1	-1.70	29.80	0	0	0	0	0	0	
4939	20	0.00	0	-0.73	29.80	0	0	0	0	0	0	
4996	20	0.00	-1	-1.53	29.80	0	0	0	0	0	0	
5048	20	0.00	0	-0.38	29.80	0	0	0	0	0	0	
5101	20	0.00	0	-0.29	29.80	0	0	0	0	0	0	
5153	20	0.00	0	-1.00	29.80	0	0	0	0	0	0	
5207	20	0.00	0	-1.00	29.80	0	0	0	0	0	0	
5259	20	0.00	0	-0.64	29.80	0	0	0	0	0	0	
5315	20	0.00	0	-1.26	29.90	0	0	0	0	0	0	
5369	20	0.00	0	-1.09	29.90	0	0	0	0	0	0	
5421	20	0.00	0	-1.17	29.80	0	0	0	0	0	0	
5476	20	0.00	-1	-1.53	29.90	0	0	0	0	0	0	
5529	20	0.00	-1	-1.26	29.90	0	0	0	0	0	0	
5582	20	0.00	-1	-0.73	29.80	0	0	0	0	0	0	
5638	20	0.00	0	-0.29	29.80	0	0	0	0	0	0	
5691	20	0.00	0	-0.47	29.80	0	0	0	0	0	0	
5743	20	0.00	0	-0.47	29.80	0	0	0	0	0	0	
5797	20	0.00	0	-0.03	29.80	0	0	0	0	0	0	
5849	20	0.00	0	-1.09	29.80	0	0	0	0	0	0	
5902	20	0.00	0	-0.73	29.80	0	0	0	0	0	0	
5958	20	0.00	0	-0.73	29.80	0	0	0	0	0	0	
6011	20	0.00	0	-0.38	29.80	0	0	0	0	0	0	
6064	20	0.00	0	-1.09	29.80	0	0	0	0	0	0	
6116	20	0.00	0	-1.26	29.80	0	0	0	0	0	0	
6171	20	0.00	0	-0.73	29.90	0	0	0	0	0	0	
6228	20	0.00	0	-1.09	29.90	0	0	0	0	0	0	
6281	20	0.00	0	-0.56	29.90	0	0	0	0	0	0	
6333	20	0.00	0	-1.17	29.90	0	0	0	0	0	0	
6386	20	0.00	0	-1.00	29.90	0	0	0	0	0	0	
6439	20	0.00	0	-0.64	29.90	0	0	0	0	0	0	
6492	20	0.00	0	-0.56	29.90	0	0	0	0	0	0	
6548	20	0.00	0	-0.64	29.80	0	0	0	0	0	0	
6600	20	0.00	0	-0.47	29.90	0	0	0	0	0	0	
6654	20	0.00	0	-0.73	29.80	0	0	0	0	0	0	
6706	20	0.00	0	-0.64	29.90	0	0	0	0	0	0	
6759	20	0.00	0	-0.21	29.90	0	0	0	0	0	0	
6811	20	0.00	0	-1.35	29.90	0	0	0	0	0	0	
6871	20	0.00	0	-1.09	29.90	0	0	0	0	0	0	
6923	20	0.00	0	-0.47	29.90	0	0	0	0	0	0	
6976	20	0.00	0	-0.47	29.90	0	0	0	0	0	0	
7028	20	0.00	0	-0.56	29.90	0	0	0	0	0	0	
7082	20	0.00	0	-0.64	29.90	0	0	0	0	0	0	
7134	20	0.00	0	-0.73	29.90	0	0	0	0	0	0	
7190	20	0.00	0	-0.73	29.90	0	0	0	0	0	0	
7243	20	0.00	0	-1.17	29.90	0	0	0	0	0	0	
7296	20	0.00	0	-1.53	29.90	0	0	0	0	0	0	
7349	20	0.00	0	-0.56	29.90	0	0	0	0	0	0	
7401	20	0.00	0	-0.21	29.90	0	0	0	0	0	0	
7454	20	0.00	0	-0.47	29.90	0	0	0	0	0	0	
7511	20	0.00	0	-0.29	29.90	0	0	0	0	0	0	
7566	20	0.00	0	-1.26	29.90	0	0	0	0	0	0	
7618	20	0.00	0	-1.35	29.90	0	0	0	0	0	0	
7672	20	0.00	0	-1.26	29.90	0	0	0	0	0	0	
7724	20	0.00	0	-0.56	29.90	0	0	0	0	0	0	
7780	20	0.00	0	-1.26	29.90	0	0	0	0	0	0	
7833	20	0.00	0	-0.03	29.90	0	0	0	0	0	0	
7886	20	0.00	0	-1.26	29.90	0	0	0	0	0	0	
7939	20	0.00	0	-1.17	29.90	0	0	0	0	0	0	
7991	20	0.00	0	-0.64	29.90	0	0	0	0	0	0	
8044	20	0.00	0	-0.56	29.90	0	0	0	0	0	0	
8101	20	0.00	0	-0.64	29.90	0	0	0	0	0	0	
8153	20	0.00	0	-0.73	29.90	0	0	0	0	0	0	
8208	20	0.00	0	-0.38	29.90	0	0	0	0	0	0	
8261	20	0.00	0	-1.00	29.90	0	0	0	0	0	0	
8314	20	0.00	0	-1.17	29.90	0	0	0	0	0	0	
8367	20	0.00	0	-0.21	29.90	0	0	0	0	0	0	
8423	20	0.00	0	-0.38	29.90	0	0	0	0	0	0	
8475	20	0.00	0	-0.47	29.90	0	0	0	0	0	0	
8529	20	0.00	0	-0.73	29.90	0	0	0	0	0	0	
8581	20	0.00	0	-0.73	29.90	0	0	0	0	0	0	
8634	20	0.00	0	-0.64	29.90	0	0	0	0	0	0	
8686	20	0.00	0	-1.00	29.90	0	0	0	0	0	0	
8743	20	0.00	0	-1.09	29.90	0	0	0	0	0	0	
8796	20	0.00	0	-1.09	29.90	0	0	0	0	0	0	
8848	20	0.00	0	-0.38	29.90	0	0	0	0	0	0	
8903	20	0.00	0	-0.64	29.90	0	0	0	0	0	0	
8957	20	0.00	0	-0.73	29.90	0	0	0	0	0	0	
9013	20	0.00	0	-1.00	29.90	0	0	0	0	0	0	
9065	20	0.00	0	-1.35	29.90	0	0	0	0	0	0	
9118	20	0.00	0	-0.38	29.90	0	0	0	0	0	0	
9171	20	0.00	0	-0.47	29.90	0	0	0	0	0	0	
9224	20	0.00	0	0.06	29.90	0	0	0	0	0	0	
9276	20	0.00	0	-0.12	29.90	0	0	0	0	0	0	
9332	20	0.00	0	-0.29	29.90	0	0	0	0	0	0	
9385	20	0.00	0	-1.09	29.90	0	0	0	0	0	0	
9438	20	0.00	0	-0.38	29.90	0	0	0	0	0	0	
9491	20	0.00	0	-0.12	29.90	0	0	0	0	0	0	
9543	20	0.00	0	-0.56	29.90	0	0	0	0	0	0	
9599	20	0.00	0	-0.38	29.90	0	0	0	0	0	0	
9655	20	0.00	0	-0.12	29.90	0	0	0	0	0	0	
9707	20	0.00	0	-0.29	29.90	0	0	0	0	0	0	
9760	20	0.00	0	-0.56	29.90	0	0	0	0	0	0	
9813	20	0.00	0	-0.38	29.90	0	0	0	0	0	0	
9866	20	0.00	0	-0.21	29.90	0	0	0	0	0	0	
9918	20	0.00	0	-0.38	29.90	0	0	0	0	0	0	
9974	20	0.00	0	-0.21	29.90	0	0	0	0	0	0	
10028	20	0.00	0	-0.38	29.90	0	0	0	0	0	0	
10080	20	0.00	0	-0.73	29.90	0	0	0	0	0	0	
10133	20	0.00	0	0.33	29.90	0	0	0	0	0	0	
10185	20	0.00	0	0.68	29.90	0	0	0	0	0	0	
10239	20	0.00	0	0.68	29.90	0	0	0	0	0	0	
10297	20	0.00	0	-0.21	29.90	0	0	0	0	0	0	
10349	20	0.00	0	-0.38	29.90	0	0	0	0	0	0	
10403	20	0.00	0	-0.64	29.90	0	0	0	0	0	0	
10455	20	0.00	0	-0.12	29.90	0	0	0	0	0	0	
10508	20	0.00	0	-0.12	30.00	0	0	0	0	0	0	
10563	20	0.00	0	-0.38	30.00	0	0	0	0	0	0	
10617	20	0.00	0	-0.12	30.00	0	0	0	0	0	0	
10669	20	0.00	0	-1.00	29.90	0	0	0	0	0	0	
10722	20	0.00	0	-0.64	30.00	0	0	0	0	0	0	
10774	20	0.00	0	-0.38	30.00	0	0	0	0	0	0	
10826	20	0.00	0	-0.38	30.00	0	0	0	0	0	0	
10883	20	0.00	0	-0.47	30.00	0	0	0	0	0	0	
10945	20	0.00	0	-0.12	29.90	0	0	0	0	0	0	
11001	20	0.00	0	-0.38	30.00	0	0	0	0	0	0	
11055	20	0.00	0	-0.56	30.00	0	0	0	0	0	0	
11110	20	0.00	0	-0.29	30.00	0	0	0	0	0	0	
11168	20	0.00	0	-0.73	30.00	0	0	0	0	0	0	
11223	20	0.00	0	-0.73	30.00	0	0	0	0	0	0	
11278	20	0.00	0	-0.64	30.00	0	0	0	0	0	0	
11332	20	0.00	0	-0.29	30.00	0	0	0	0	0	0	
11388	20	0.00	0	-0.64	30.00	0	0	0	0	0	0	
11442	20	0.00	0	-0.64	30.00	0	0	0	0	0	0	
11500	20	0.00	0	-1.00	30.00	0	0	0	0	0	0	
11555	20	0.00	0	-1.62	30.00	0	0	0	0	0	0	
11610	20	0.00	0	-0.29	30.00	0	0	0	0	0	0	
11667	20	0.00	0	-0.03	30.00	0	0	0	0	0	0	
11721	20	0.00	0	-0.38	30.00	0	0	0	0	0	0	
11780	20	0.00	0	-1.17	30.00	0	0	0	0	0	0	
11835	20	0.00	0	-0.03	30.00	0	0	0	0	0	0	
11890	20	0.00	0	-0.21	30.00	0	0	0	0	0	0	
11945	20	0.00	0	-0.38	30.00	0	0	0	0	0	0	
12000	20	0.00	0	-0.73	30.00	0	0	0	0	0	0	
12054	20	0.00	0	-0.56	30.00	0	0	0	0	0	0	
12113	20	0.00	0	-1.00	30.00	0	0	0	0	0	0	
12168	20	0.00	0	-1.00	30.00	0	0	0	0	0	0	
12223	20	0.00	0	-0.56	30.00	0	0	0	0	0	0	
12277	20	0.00	0	-0.38	30.00	0	0	0	0	0	0	
12335	20	0.00	0	-0.12	30.00	0	0	0	0	0	0	
12390	20	0.00	0	-0.56	30.00	0	0	0	0	0	0	
12448	20	0.00	0	-0.64	30.00	0	0	0	0	0	0	
12503	20	0.00	0	-0.47	30.00	0	0	0	0	0	0	
12558	20	0.00	0	-0.56	30.00	0	0	0	0	0	0	
12612	20	0.00	0	-0.38	30.00	0	0	0	0	0	0	
12668	20	0.00	0	-0.38	30.00	0	0	0	0	0	0	
12722	20	0.00	0	-0.12	30.00	0	0	0	0	0	0	
12780	20	0.00	0	-0.38	30.00	0	0	0	0	0	0	
12836	20	0.00	0	-0.64	30.00	0	0	0	0	0	0	
12890	20	0.00	0	0.06	30.00	0	0	0	0	0	0	
12945	20	0.00	0	-0.12	30.00	0	0	0	0	0	0	
12999	20	0.00	0	-0.03	30.00	0	0	0	0	0	0	
13060	20	0.00	0	-0.12	30.00	0	0	0	0	0	0	
13115	20	0.00	0	-0.21	30.00	0	0	0	0	0	0	
13169	20	0.00	0	-0.56	30.00	0	0	0	0	0	0	
13225	20	0.00	0	-0.03	30.00	0	0	0	0	0	0	
13279	20	0.00	0	-0.47	30.00	0	0	0	0	0	0	
13334	20	0.00	0	-0.03	30.00	0	0	0	0	0	0	
13393	20	0.00	0	-0.21	30.00	0	0	0	0	0	0	
13447	20	0.00	0	-0.64	30.00	0	0	0	0	0	0	
13502	20	0.00	0	-1.44	30.00	0	0	0	0	0	0	
13556	20	0.00	0	-0.56	30.00	0	0	0	0	0	0	
13612	20	0.00	0	-0.38	30.00	0	0	0	0	0	0	
13666	20	0.00	0	-1.09	30.00	0	0	0	0	0	0	
13726	20	0.00	0	0.06	30.00	0	0	0	0	0	0	
13782	20	0.00	0	-1.09	30.00	0	0	0	0	0	0	
13836	20	0.00	0	-0.56	30.00	0	0	0	0	0	0	
13891	20	0.00	0	-1.26	30.00	0	0	0	0	0	0	
13947	20	0.00	0	-1.26	30.00	0	0	0	0	0	0	
14001	20	0.00	0	-0.64	30.00	0	0	0	0	0	0	
14076	20	0.00	0	-1.00	30.00	0	0	0	0	0	0	
14155	20	0.00	0	-1.35	30.00	0	0	0	0	0	0	
14211	20	0.00	0	-1.09	30.00	0	0	0	0	0	0	
14266	20	0.00	0	-1.09	30.00	0	0	0	0	0	0	
14321	20	0.00	-1	-1.26	30.00	0	0	0	0	0	0	
14377	20	0.00	-1	-1.26	30.10	0	0	0	0	0	0	
14436	20	0.00	-1	-1.09	30.00	0	0	0	0	0	0	
14493	20	0.00	-1	-1.35	30.00	0	0	0	0	0	0	
14549	20	0.00	-1	-0.56	30.00	0	0	0	0	0	0	
14604	20	0.00	-1	-1.09	30.00	0	0	0	0	0	0	
14659	20	0.00	-1	-1.09	30.10	0	0	0	0	0	0	
14718	20	0.00	-1	-1.26	30.10	0	0	0	0	0	0	
14773	20	0.00	-1	-0.64	30.00	0	0	0	0	0	0	
14828	20	0.00	-1	-1.00	30.00	0	0	0	0	0	0	
14884	20	0.00	0	-0.38	30.10	0	0	0	0	0	0	
14939	20	0.00	0	-0.73	30.10	0	0	0	0	0	0	
14993	20	0.00	0	-1.00	30.10	0	0	0	0	0	0	
15052	20	0.00	0	-0.56	30.10	0	0	0	0	0	0	
15108	20	0.00	0	-1.17	30.10	0	0	0	0	0	0	
15165	20	0.00	0	-0.64	30.10	0	0	0	0	0	0	
15220	20	0.00	0	-1.09	30.10	0	0	0	0	0	0	
15276	20	0.00	0	-1.00	30.10	0	0	0	0	0	0	
15331	20	0.00	0	-0.47	30.10	0	0	0	0	0	0	
15390	20	0.00	0	-0.73	30.10	0	0	0	0	0	0	
15445	20	0.00	0	-0.56	30.10	0	0	0	0	0	0	
15500	20	0.00	0	-0.38	30.10	0	0	0	0	0	0	
15555	20	0.00	0	-1.00	30.10	0	0	0	0	0	0	
15611	20	0.00	0	-1.17	30.10	0	0	0	0	0	0	
15666	20	0.00	0	-0.56	30.10	0	0	0	0	0	0	
15724	20	0.00	0	-1.00	30.10	0	0	0	0	0	0	
15780	20	0.00	0	-1.17	30.10	0	0	0	0	0	0	
15834	20	0.00	0	-1.00	30.10	0	0	0	0	0	0	
15892	20	0.00	0	-1.26	30.10	0	0	0	0	0	0	
15947	20	0.00	0	-0.29	30.10	0	0	0	0	0	0	
16006	20	0.00	0	-0.64	30.10	0	0	0	0	0	0	
16061	20	0.00	0	-0.38	30.10	0	0	0	0	0	0	
16116	20	0.00	0	-1.17	30.10	0	0	0	0	0	0	
16171	20	0.00	0	-1.17	30.10	0	0	0	0	0	0	
16226	20	0.00	0	-1.09	30.10	0	0	0	0	0	0	
16281	20	0.00	0	-1.17	30.10	0	0	0	0	0	0	
16340	20	0.00	0	-0.64	30.10	0	0	0	0	0	0	
16395	20	0.00	0	-1.00	30.10	0	0	0	0	0	0	
16450	20	0.00	0	-0.73	30.10	0	0	0	0	0	0	
16506	20	0.00	0	-0.56	30.10	0	0	0	0	0	0	
16563	20	0.00	0	-0.73	30.10	0	0	0	0	0	0	
16618	20	0.00	0	-0.64	30.10	0	0	0	0	0	0	
16677	20	0.00	0	-1.17	30.10	0	0	0	0	0	0	
16732	20	0.00	0	-0.56	30.10	0	0	0	0	0	0	
16787	20	0.00	0	-0.56	30.10	0	0	0	0	0	0	
16841	20	0.00	0	-0.64	30.10	0	0	0	0	0	0	
16897	20	0.00	0	-1.00	30.10	0	0	0	0	0	0	
16952	20	0.00	0	-1.17	30.10	0	0	0	0	0	0	
17010	20	0.00	0	-0.64	30.10	0	0	0	0	0	0	
17066	20	0.00	0	-0.47	30.10	0	0	0	0	0	0	
17121	20	0.00	0	-0.73	30.10	0	0	0	0	0	0	
17176	20	0.00	0	-0.56	30.10	0	0	0	0	0	0	
17232	20	0.00	0	-1.00	30.10	0	0	0	0	0	0	
17284	20	0.00	0	-1.09	30.10	0	0	0	0	0	0	
17343	20	0.00	0	-0.47	30.10	0	0	0	0	0	0	
17398	20	0.00	0	-1.17	30.10	0	0	0	0	0	0	
17453	20	0.00	0	-1.00	30.10	0	0	0	0	0	0	
17508	20	0.00	0	-0.73	30.10	0	0	0	0	0	0	
17563	20	0.00	0	-1.09	30.10	0	0	0	0	0	0	
17619	20	0.00	-1	-1.70	30.10	0	0	0	0	0	0	
17677	20	0.00	-1	-1.00	30.10	0	0	0	0	0	0	
17732	20	0.00	0	-0.38	30.10	0	0	0	0	0	0	
17788	20	0.00	0	-0.73	30.10	0	0	0	0	0	0	
17843	20	0.00	0	-0.21	30.10	0	0	0	0	0	0	
17897	20	0.00	0	-1.44	30.10	0	0	0	0	0	0	
17959	20	0.00	0	-0.64	30.10	0	0	0	0	0	0	
18014	20	0.00	0	-1.00	30.10	0	0	0	0	0	0	
18069	20	0.00	0	-0.73	30.10	0	0	0	0	0	0	
18124	20	0.00	0	-0.56	30.10	0	0	0	0	0	0	
18179	20	0.00	0	-1.17	30.10	0	0	0	0	0	0	
18234	20	0.00	0	-0.47	30.10	0	0	0	0	0	0	
18293	20	0.00	0	-0.56	30.10	0	0	0	0	0	0	
18348	20	0.00	0	-0.47	30.10	0	0	0	0	0	0	
18403	20	0.00	0	-0.38	30.10	0	0	0	0	0	0	
18458	20	0.00	0	-0.21	30.10	0	0	0	0	0	0	
18514	20	0.00	0	-0.38	30.10	0	0	0	0	0	0	
18569	20	0.00	0	-0.47	30.10	0	0	0	0	0	0	
18629	20	0.00	0	-0.21	30.10	0	0	0	0	0	0	
18685	20	0.00	0	-0.38	30.10	0	0	0	0	0	0	
18740	20	0.00	0	-0.21	30.10	0	0	0	0	0	0	
18795	20	0.00	0	-0.12	30.10	0	0	0	0	0	0	
18851	20	0.00	0	0.24	30.10	0	0	0	0	0	0	
18905	20	0.00	0	-0.29	30.10	0	0	0	0	0	0	
18964	20	0.00	0	-0.12	30.10	0	0	0	0	0	0	
19018	20	0.00	0	-0.21	30.10	0	0	0	0	0	0	
19074	20	0.00	0	0.06	30.10	0	0	0	0	0	0	
19129	20	0.00	0	-0.38	30.10	0	0	0	0	0	0	
19184	20	0.00	0	0.15	30.10	0	0	0	0	0	0	
19240	20	0.00	0	-0.03	30.10	0	0	0	0	0	0	
19298	20	0.00	0	-0.12	30.10	0	0	0	0	0	0	
19355	20	0.00	0	0.15	30.10	0	0	0	0	0	0	
19411	20	0.00	0	-0.21	30.10	0	0	0	0	0	0	
19466	20	0.00	0	-0.12	30.10	0	0	0	0	0	0	
19520	20	0.00	0	-0.21	30.10	0	0	0	0	0	0	
19579	20	0.00	0	0.15	30.10	0	0	0	0	0	0	
19634	20	0.00	0	0.24	30.10	0	0	0	0	0	0	
19689	20	0.00	0	0.06	30.10	0	0	0	0	0	0	
19744	20	0.00	0	0.24	30.10	0	0	0	0	0	0	
19799	20	0.00	0	-0.56	30.10	0	0	0	0	0	0	
19854	20	0.00	0	0.06	30.10	0	0	0	0	0	0	
19912	20	0.00	0	-0.73	30.10	0	0	0	0	0	0	
19968	20	0.00	0	-0.21	30.10	0	0	0	0	0	0	
20023	20	0.00	0	-0.38	30.10	0	0	0	0	0	0	
20080	20	0.00	0	-0.38	30.10	0	0	0	0	0	0	
20136	20	0.00	0	-0.03	30.20	0	0	0	0	0	0	
20191	20	0.00	0	-0.21	30.20	0	0	0	0	0	0	
20249	20	0.00	0	-0.12	30.20	0	0	0	0	0	0	
20304	20	0.00	0	0.41	30.20	0	0	0	0	0	0	
20359	20	0.00	0	0.15	30.20	0	0	0	0	0	0	
20414	20	0.00	0	0.06	30.20	0	0	0	0	0	0	
20469	20	0.00	0	0.33	30.20	0	0	0	0	0	0	
20524	20	0.00	0	-0.12	30.20	0	0	0	0	0	0	
20582	20	0.00	0	0.06	30.20	0	0	0	0	0	0	
20637	20	0.00	0	-0.12	30.20	0	0	0	0	0	0	
20693	20	0.00	0	0.15	30.20	0	0	0	0	0	0	
20750	20	0.00	0	0.41	30.20	0	0	0	0	0	0	
20805	20	0.00	0	-0.12	30.20	0	0	0	0	0	0	
20864	20	0.00	0	0.24	30.20	0	0	0	0	0	0	
20919	20	0.00	0	-0.03	30.20	0	0	0	0	0	0	
20973	20	0.00	0	0.15	30.20	0	0	0	0	0	0	
21029	20	0.00	0	-0.29	30.20	0	0	0	0	0	0	
21084	20	0.00	0	-0.03	30.20	0	0	0	0	0	0	
21139	20	0.00	0	-0.64	30.20	0	0	0	0	0	0	
21198	20	0.00	0	-0.21	30.20	0	0	0	0	0	0	
21253	20	0.00	0	0.68	30.20	0	0	0	0	0	0	
21307	20	0.00	0	-0.29	30.20	0	0	0	0	0	0	
21362	20	0.00	0	-0.21	30.20	0	0	0	0	0	0	
21418	20	0.00	0	-0.03	30.20	0	0	0	0	0	0	
21475	20	0.00	0	-0.12	30.20	0	0	0	0	0	0	
21533	20	0.00	0	-0.29	30.20	0	0	0	0	0	0	
21589	20	0.00	0	-0.12	30.20	0	0	0	0	0	0	
21643	20	0.00	0	-0.12	30.20	0	0	0	0	0	0	
21698	20	0.00	0	-0.38	30.20	0	0	0	0	0	0	
21754	20	0.00	0	-0.64	30.20	0	0	0	0	0	0	
21808	20	0.00	0	-0.38	30.20	0	0	0	0	0	0	
21866	20	0.00	0	0.06	30.20	0	0	0	0	0	0	
21921	20	0.00	0	0.24	30.20	0	0	0	0	0	0	
21976	20	0.00	0	0.24	30.20	0	0	0	0	0	0	
22031	20	0.00	0	-0.03	30.20	0	0	0	0	0	0	
22086	20	0.00	0	-0.21	30.20	0	0	0	0	0	0	
22154	20	0.00	0	0.41	30.20	0	0	0	0	0	0	
22209	20	0.00	0	0.24	30.20	0	0	0	0	0	0	
22264	20	0.00	0	0.50	30.20	0	0	0	0	0	0	
22318	20	0.00	0	0.15	30.20	0	0	0	0	0	0	
22373	20	0.00	0	0.33	30.20	0	0	0	0	0	0	
22431	20	0.00	0	0.06	30.20	0	0	0	0	0	0	
22486	20	0.00	0	0.15	30.20	0	0	0	0	0	0	
22540	20	0.00	0	0.15	30.20	0	0	0	0	0	0	
22595	20	0.00	0	0.41	30.20	0	0	0	0	0	0	
22650	20	0.00	0	0.59	30.20	0	0	0	0	0	0	
22705	20	0.00	0	0.50	30.20	0	0	0	0	0	0	
22762	20	0.00	0	0.77	30.20	0	0	0	0	0	0	
22816	20	0.00	0	0.86	30.20	0	0	0	0	0	0	
22874	20	0.00	0	0.33	30.20	0	0	0	0	0	0	
22929	20	0.00	0	0.59	30.20	0	0	0	0	0	0	
22983	20	0.00	0	0.68	30.20	0	0	0	0	0	0	
23039	20	0.00	0	0.68	30.20	0	0	0	0	0	0	
23097	20	0.00	0	0.95	30.20	0	0	0	0	0	0	
23151	20	0.00	0	0.50	30.20	0	0	0	0	0	0	
23207	20	0.00	0	0.86	30.20	0	0	0	0	0	0	
23261	20	0.00	0	0.33	30.20	0	0	0	0	0	0	
23316	20	0.00	0	-0.38	30.20	0	0	0	0	0	0	
23370	20	0.00	0	0.33	30.20	0	0	0	0	0	0	
23429	20	0.00	0	0.50	30.20	0	0	0	0	0	0	
23484	20	0.00	0	0.15	30.20	0	0	0	0	0	0	
23538	20	0.00	0	0.24	30.20	0	0	0	0	0	0	
23596	20	0.00	0	-0.56	30.20	0	0	0	0	0	0	
23651	20	0.00	0	0.15	30.20	0	0	0	0	0	0	
23708	20	0.00	0	-0.47	30.20	0	0	0	0	0	0	
23764	20	0.00	0	0.15	30.20	0	0	0	0	0	0	
23818	20	0.00	0	-1.00	30.20	0	0	0	0	0	0	
23873	20	0.00	0	-0.64	30.20	0	0	0	0	0	0	
23928	20	0.00	0	-0.29	30.20	0	0	0	0	0	0	
23983	20	0.00	0	-0.03	30.20	0	0	0	0	0	0	
24041	20	0.00	0	-1.00	30.20	0	0	0	0	0	0	
24095	20	0.00	0	-0.73	30.20	0	0	0	0	0	0	
24151	20	0.00	0	-0.29	30.20	0	0	0	0	0	0	
24206	20	0.00	0	-0.56	30.20	0	0	0	0	0	0	
24260	20	0.00	0	-0.38	30.20	0	0	0	0	0	0	
24318	20	0.00	0	-0.21	30.20	0	0	0	0	0	0	
24376	20	0.00	0	-0.12	30.20	0	0	0	0	0	0	
24431	20	0.00	0	-0.12	30.20	0	0	0	0	0	0	
24486	20	0.00	0	-1.00	30.20	0	0	0	0	0	0	
24541	20	0.00	0	-0.29	30.20	0	0	0	0	0	0	
24595	20	0.00	0	-1.00	30.20	0	0	0	0	0	0	
24650	20	0.00	0	-0.38	30.20	0	0	0	0	0	0	
24709	20	0.00	0	-0.21	30.30	0	0	0	0	0	0	
24764	20	0.00	0	0.06	30.30	0	0	0	0	0	0	
24818	20	0.00	0	-0.38	30.20	0	0	0	0	0	0	
24874	20	0.00	0	-0.73	30.20	0	0	0	0	0	0	
24928	20	0.00	0	-0.47	30.20	0	0	0	0	0	0	
24989	20	0.00	0	-1.09	30.20	0	0	0	0	0	0	
25044	20	0.00	0	-0.38	30.20	0	0	0	0	0	0	
25099	20	0.00	0	-0.29	30.30	0	0	0	0	0	0	
25154	20	0.00	0	-0.56	30.30	0	0	0	0	0	0	
25209	20	0.00	0	-0.64	30.20	0	0	0	0	0	0	
25264	20	0.00	0	-0.73	30.30	0	0	0	0	0	0	
25322	20	0.00	0	-0.56	30.20	0	0	0	0	0	0	
25377	20	0.00	0	-0.73	30.30	0	0	0	0	0	0	
25432	20	0.00	0	-0.47	30.30	0	0	0	0	0	0	
25487	20	0.00	0	-0.56	30.30	0	0	0	0	0	0	
25542	20	0.00	0	-0.56	30.30	0	0	0	0	0	0	
25597	20	0.00	0	-1.00	30.30	0	0	0	0	0	0	
25655	20	0.00	0	-0.56	30.30	0	0	0	0	0	0	
25712	20	0.00	0	-0.64	30.30	0	0	0	0	0	0	
25768	20	0.00	0	-0.64	30.30	0	0	0	0	0	0	
25823	20	0.00	0	-0.64	30.30	0	0	0	0	0	0	
25877	20	0.00	0	-0.29	30.30	0	0	0	0	0	0	
25932	20	0.00	0	-0.56	30.30	0	0	0	0	0	0	
25991	20	0.00	0	-0.56	30.30	0	0	0	0	0	0	
26045	20	0.00	0	-0.38	30.30	0	0	0	0	0	0	
26100	20	0.00	0	-0.56	30.30	0	0	0	0	0	0	
26155	20	0.00	0	-0.38	30.30	0	0	0	0	0	0	
26210	20	0.00	0	-0.73	30.30	0	0	0	0	0	0	
26265	20	0.00	0	-0.38	30.30	0	0	0	0	0	0	
26323	20	0.00	0	-0.56	30.30	0	0	0	0	0	0	
26381	20	0.00	0	-0.73	30.30	0	0	0	0	0	0	
26435	20	0.00	0	-1.09	30.30	0	0	0	0	0	0	
26491	20	0.00	0	-1.00	30.30	0	0	0	0	0	0	
26545	20	0.00	0	-0.29	30.30	0	0	0	0	0	0	
26603	20	0.00	0	-0.47	30.30	0	0	0	0	0	0	
26659	20	0.00	0	-1.26	30.30	0	0	0	0	0	0	
26713	20	0.00	0	-0.38	30.30	0	0	0	0	0	0	
26768	20	0.00	0	-1.35	30.30	0	0	0	0	0	0	
26822	20	0.00	0	-1.09	30.30	0	0	0	0	0	0	
26878	20	0.00	0	-1.09	30.30	0	0	0	0	0	0	
26936	20	0.00	-1	-1.53	30.30	0	0	0	0	0	0	
26991	20	0.00	0	-0.47	30.30	0	0	0	0	0	0	
27049	20	0.00	0	-1.00	30.30	0	0	0	0	0	0	
27103	20	0.00	0	-0.64	30.30	0	0	0	0	0	0	
27158	20	0.00	0	-1.35	30.30	0	0	0	0	0	0	
27212	20	0.00	0	-0.12	30.30	0	0	0	0	0	0	
27271	20	0.00	0	-0.38	30.30	0	0	0	0	0	0	
27326	20	0.00	0	-0.47	30.30	0	0	0	0	0	0	
27380	20	0.00	0	-0.47	30.30	0	0	0	0	0	0	
27436	20	0.00	0	-0.56	30.30	0	0	0	0	0	0	
27490	20	0.00	0	-0.64	30.30	0	0	0	0	0	0	
27545	20	0.00	0	-0.56	30.30	0	0	0	0	0	0	
27604	20	0.00	0	-1.00	30.30	0	0	0	0	0	0	
27658	20	0.00	0	-0.56	30.30	0	0	0	0	0	0	
27713	20	0.00	0	-1.00	30.30	0	0	0	0	0	0	
27771	20	0.00	0	-0.38	30.30	0	0	0	0	0	0	
27826	20	0.00	0	-1.35	30.30	0	0	0	0	0	0	
27884	20	0.00	0	-0.56	30.30	0	0	0	0	0	0	
27939	20	0.00	0	-0.47	30.30	0	0	0	0	0	0	
27994	20	0.00	0	-1.00	30.30	0	0	0	0	0	0	
28049	20	0.00	0	-0.12	30.30	0	0	0	0	0	0	
28103	20	0.00	0	0.06	30.30	0	0	0	0	0	0	
28159	20	0.00	0	-0.38	30.30	0	0	0	0	0	0	
28217	20	0.00	0	-1.17	30.30	0	0	0	0	0	0	
28271	20	0.00	0	-0.38	30.30	0	0	0	0	0	0	
28327	20	0.00	0	0.24	30.30	0	0	0	0	0	0	
28382	20	0.00	0	-0.47	30.30	0	0	0	0	0	0	
28436	20	0.00	0	-0.64	30.30	0	0	0	0	0	0	
28489	20	0.00	0	-0.64	30.30	0	0	0	0	0	0	
28548	20	0.00	0	-0.73	30.30	0	0	0	0	0	0	
28603	20	0.00	0	-0.38	30.30	0	0	0	0	0	0	
28657	20	0.00	0	-0.64	30.30	0	0	0	0	0	0	
28713	20	0.00	0	-0.56	30.30	0	0	0	0	0	0	
28767	20	0.00	0	-0.38	30.30	0	0	0	0	0	0	
28822	20	0.00	0	0.06	30.30	0	0	0	0	0	0	
28881	20	0.00	0	-0.21	30.30	0	0	0	0	0	0	
28936	20	0.00	0	0.15	30.30	0	0	0	0	0	0	
28990	20	0.00	0	-0.47	30.30	0	0	0	0	0	0	
29045	20	0.00	0	-0.47	30.30	0	0	0	0	0	0	
29101	20	0.00	0	-0.03	30.30	0	0	0	0	0	0	
29158	20	0.00	0	-0.47	30.30	0	0	0	0	0	0	
29216	20	0.00	0	-0.38	30.30	0	0	0	0	0	0	
29271	20	0.00	0	-1.00	30.30	0	0	0	0	0	0	
29326	20	0.00	0	-0.73	30.30	0	0	0	0	0	0	
29380	20	0.00	0	-1.00	30.30	0	0	0	0	0	0	
29436	20	0.00	0	-0.47	30.30	0	0	0	0	0	0	
29491	20	0.00	0	-0.56	30.30	0	0	0	0	0	0	
29548	20	0.00	0	0.06	30.30	0	0	0	0	0	0	
29604	20	0.00	0	-0.38	30.30	0	0	0	0	0	0	
29659	20	0.00	0	-0.03	30.30	0	0	0	0	0	0	
29713	20	0.00	0	-0.38	30.30	0	0	0	0	0	0	
29768	20	0.00	0	-0.64	30.30	0	0	0	0	0	0	
29823	20	0.00	0	-1.17	30.30	0	0	0	0	0	0	
29884	20	0.00	0	-1.09	30.30	0	0	0	0	0	0	
29938	20	0.00	0	-1.44	30.30	0	0	0	0	0	0	
29994	20	0.00	0	-0.47	30.30	0	0	0	0	0	0	
30048	20	0.00	0	-0.64	30.30	0	0	0	0	0	0	
30103	20	0.00	0	-0.29	30.30	0	0	0	0	0	0	
30162	20	0.00	0	-0.56	30.30	0	0	0	0	0	0	
30216	20	0.00	0	-1.17	30.30	0	0	0	0	0	0	
30271	20	0.00	0	-0.64	30.30	0	0	0	0	0	0	
30326	20	0.00	0	-1.00	30.30	0	0	0	0	0	0	
30381	20	0.00	0	-0.47	30.30	0	0	0	0	0	0	
30436	20	0.00	0	-0.56	30.30	0	0	0	0	0	0	
30494	20	0.00	0	-0.56	30.30	0	0	0	0	0	0	
30552	20	0.00	0	-1.09	30.30	0	0	0	0	0	0	
30606	20	0.00	0	-0.29	30.30	0	0	0	0	0	0	
30661	20	0.00	0	-0.47	30.30	0	0	0	0	0	0	
30716	20	0.00	0	-0.29	30.30	0	0	0	0	0	0	
30771	20	0.00	0	-0.56	30.30	0	0	0	0	0	0	
30829	20	0.00	0	-0.21	30.30	0	0	0	0	0	0	
30884	20	0.00	0	-0.03	30.30	0	0	0	0	0	0	
30939	20	0.00	0	-0.21	30.30	0	0	0	0	0	0	
30993	20	0.00	0	-0.29	30.30	0	0	0	0	0	0	
31048	20	0.00	0	-0.56	30.30	0	0	0	0	0	0	
31104	20	0.00	0	-0.64	30.30	0	0	0	0	0	0	
31161	20	0.00	0	-0.56	30.30	0	0	0	0	0	0	
31216	20	0.00	0	-0.38	30.30	0	0	0	0	0	0	
31274	20	0.00	0	-0.56	30.30	0	0	0	0	0	0	
31329	20	0.00	0	-0.64	30.30	0	0	0	0	0	0	
31383	20	0.00	0	-1.26	30.30	0	0	0	0	0	0	
31442	20	0.00	0	-0.64	30.30	0	0	0	0	0	0	
31497	20	0.00	0	-0.38	30.30	0	0	0	0	0	0	
31551	20	0.00	0	-0.38	30.30	0	0	0	0	0	0	
31606	20	0.00	0	-0.64	30.30	0	0	0	0	0	0	
31661	20	0.00	0	-0.21	30.30	0	0	0	0	0	0	
31716	20	0.00	0	0.06	30.30	0	0	0	0	0	0	
31774	20	0.00	0	0.33	30.30	0	0	0	0	0	0	
31829	20	0.00	0	0.77	30.30	0	0	0	0	0	0	
31884	20	0.00	0	0.33	30.30	0	0	0	0	0	0	
31941	20	0.00	0	0.68	30.30	0	0	0	0	0	0	
31996	20	0.00	0	-1.09	30.40	0	0	0	0	0	0	
32051	20	0.00	0	-0.47	30.40	0	0	0	0	0	0	
32109	20	0.00	0	-0.12	30.40	0	0	0	0	0	0	
32164	20	0.00	0	-1.17	30.40	0	0	0	0	0	0	
32219	20	0.00	0	-0.73	30.40	0	0	0	0	0	0	
32274	20	0.00	0	-0.38	30.40	0	0	0	0	0	0	
32328	20	0.00	0	-0.47	30.40	0	0	0	0	0	0	
32384	20	0.00	0	-0.64	30.30	0	0	0	0	0	0	
32442	20	0.00	0	-0.64	30.40	0	0	0	0	0	0	
32496	20	0.00	0	-1.09	30.40	0	0	0	0	0	0	
32552	20	0.00	0	-1.00	30.40	0	0	0	0	0	0	
32606	20	0.00	0	-1.00	30.40	0	0	0	0	0	0	
32663	20	0.00	0	-0.73	30.40	0	0	0	0	0	0	
32722	20	0.00	0	-0.56	30.40	0	0	0	0	0	0	
32776	20	0.00	0	-1.26	30.40	0	0	0	0	0	0	
32831	20	0.00	0	-0.64	30.40	0	0	0	0	0	0	
32885	20	0.00	0	-0.38	30.40	0	0	0	0	0	0	
32941	20	0.00	0	-0.29	30.40	0	0	0	0	0	0	
32995	20	0.00	0	-1.00	30.40	0	0	0	0	0	0	
33053	20	0.00	0	-1.00	30.40	0	0	0	0	0	0	
33108	20	0.00	0	-0.73	30.40	0	0	0	0	0	0	
33163	20	0.00	0	-1.00	30.40	0	0	0	0	0	0	
33217	20	0.00	0	-1.26	30.40	0	0	0	0	0	0	
33272	20	0.00	0	-0.73	30.40	0	0	0	0	0	0	
33340	20	0.00	0	-1.35	30.40	0	0	0	0	0	0	
33394	20	0.00	0	-0.73	30.40	0	0	0	0	0	0	
33450	20	0.00	-1	-1.35	30.40	0	0	0	0	0	0	
33504	20	0.00	-1	-1.17	30.40	0	0	0	0	0	0	
33559	20	0.00	-1	-1.09	30.40	0	0	0	0	0	0	
33614	20	0.00	-1	-1.00	30.40	0	0	0	0	0	0	
33672	20	0.00	-1	-1.62	30.40	0	0	0	0	0	0	
33727	20	0.00	-1	-1.17	30.40	0	0	0	0	0	0	
33781	20	0.00	-1	-1.17	30.40	0	0	0	0	0	0	
33837	20	0.00	-1	-1.09	30.40	0	0	0	0	0	0	
33891	20	0.00	-1	-1.35	30.40	0	0	0	0	0	0	
33946	20	0.00	-1	-0.73	30.40	0	0	0	0	0	0	
34007	20	0.00	-1	-1.44	30.40	0	0	0	0	0	0	
34062	20	0.00	-1	-1.09	30.40	0	0	0	0	0	0	
34116	20	0.00	-1	-1.26	30.40	0	0	0	0	0	0	
34172	20	0.00	-1	-1.44	30.40	0	0	0	0	0	0	
34226	20	0.00	-1	-1.44	30.40	0	0	0	0	0	0	
34284	20	0.00	-1	-1.09	30.40	0	0	0	0	0	0	
34340	20	0.00	-1	-0.56	30.40	0	0	0	0	0	0	
34395	20	0.00	-1	-0.73	30.40	0	0	0	0	0	0	
34449	20	0.00	-1	-1.35	30.40	0	0	0	0	0	0	
34504	20	0.00	-1	-1.44	30.40	0	0	0	0	0	0	
34560	20	0.00	-1	-1.35	30.40	0	0	0	0	0	0	
34617	20	0.00	-1	-0.64	30.40	0	0	0	0	0	0	
34672	20	0.00	-1	-1.44	30.40	0	0	0	0	0	0	
34730	20	0.00	-1	-1.35	30.40	0	0	0	0	0	0	
34785	20	0.00	-1	-1.09	30.40	0	0	0	0	0	0	
34839	20	0.00	-1	-1.62	30.40	0	0	0	0	0	0	
34895	20	0.00	-1	-1.17	30.40	0	0	0	0	0	0	
34953	20	0.00	-1	-1.35	30.40	0	0	0	0	0	0	
35008	20	0.00	-1	-1.09	30.40	0	0	0	0	0	0	
35062	20	0.00	-1	-1.00	30.40	0	0	0	0	0	0	
35118	20	0.00	-1	-1.26	30.40	0	0	0	0	0	0	
35172	20	0.00	-1	-1.62	30.40	0	0	0	0	0	0	
35227	20	0.00	-1	-1.09	30.40	0	0	0	0	0	0	
35286	20	0.00	-1	-1.53	30.40	0	0	0	0	0	0	
35341	20	0.00	-1	-0.73	30.40	0	0	0	0	0	0	
35398	20	0.00	-1	-1.44	30.40	0	0	0	0	0	0	
35453	20	0.00	-1	-1.35	30.40	0	0	0	0	0	0	
35508	20	0.00	-1	-1.79	30.40	0	0	0	0	0	0	
35566	20	0.00	-1	-1.70	30.40	0	0	0	0	0	0	
35622	20	0.00	-1	-1.26	30.40	0	0	0	0	0	0	
35677	20	0.00	-1	-1.62	30.40	0	0	0	0	0	0	
35731	20	0.00	-1	-0.73	30.40	0	0	0	0	0	0	
35786	20	0.00	-1	-0.73	30.40	0	0	0	0	0	0	
35842	20	0.00	-1	-1.35	30.40	0	0	0	0	0	0	
35900	20	0.00	-1	-1.00	30.40	0	0	0	0	0	0	
35954	20	0.00	-1	-1.09	30.40	0	0	0	0	0	0	
36010	20	0.00	-1	-1.35	30.40	0	0	0	0	0	0	
36067	20	0.00	-1	-1.26	30.40	0	0	0	0	0	0	
36122	20	0.00	-1	-1.26	30.40	0	0	0	0	0	0	
36178	20	0.00	-1	-1.26	30.40	0	0	0	0	0	0	
36236	20	0.00	-1	-1.17	30.40	0	0	0	0	0	0	
36290	20	0.00	-1	-1.26	30.40	0	0	0	0	0	0	
36346	20	0.00	-1	-1.35	30.40	0	0	0	0	0	0	
36401	20	0.00	-1	-1.26	30.40	0	0	0	0	0	0	
36456	20	0.00	-1	-1.00	30.40	0	0	0	0	0	0	
36510	20	0.00	-1	-1.00	30.40	0	0	0	0	0	0	
36569	20	0.00	-1	-1.09	30.40	0	0	0	0	0	0	
36624	20	0.00	-1	-1.62	30.40	0	0	0	0	0	0	
36679	20	0.00	-1	-1.26	30.40	0	0	0	0	0	0	
36737	20	0.00	-1	-1.17	30.40	0	0	0	0	0	0	
36792	20	0.00	-1	-1.00	30.40	0	0	0	0	0	0	
36850	20	0.00	-1	-1.26	30.40	0	0	0	0	0	0	
36905	20	0.00	-1	-1.26	30.40	0	0	0	0	0	0	
36960	20	0.00	-1	-1.97	30.40	0	0	0	0	0	0	
37015	20	0.00	-1	-1.09	30.40	0	0	0	0	0	0	
37070	20	0.00	-1	-1.09	30.40	0	0	0	0	0	0	
37125	20	0.00	-1	-1.70	30.40	0	0	0	0	0	0	
37183	20	0.00	-1	-1.62	30.40	0	0	0	0	0	0	
37238	20	0.00	-1	-1.26	30.40	0	0	0	0	0	0	
37294	20	0.00	-1	-0.56	30.40	0	0	0	0	0	0	
37348	20	0.00	-1	-1.17	30.50	0	0	0	0	0	0	
37406	20	0.00	-1	-1.44	30.50	0	0	0	0	0	0	
37461	20	0.00	-1	-1.17	30.40	0	0	0	0	0	0	
37519	20	0.00	-1	-1.62	30.50	0	0	0	0	0	0	
37574	20	0.00	-1	-1.53	30.50	0	0	0	0	0	0	
37630	20	0.00	-1	-1.17	30.50	0	0	0	0	0	0	
37684	20	0.00	-1	-0.64	30.50	0	0	0	0	0	0	
37739	20	0.00	-1	-1.35	30.50	0	0	0	0	0	0	
37795	20	0.00	-1	-1.44	30.50	0	0	0	0	0	0	
37853	20	0.00	-1	-1.00	30.40	0	0	0	0	0	0	
37907	20	0.00	-1	-1.17	30.40	0	0	0	0	0	0	
37962	20	0.00	-1	-0.73	30.50	0	0	0	0	0	0	
38018	20	0.00	-1	-0.73	30.40	0	0	0	0	0	0	
38073	20	0.00	-1	-1.00	30.40	0	0	0	0	0	0	
38125	20	0.00	-1	-1.79	30.50	0	0	0	0	0	0	
38184	20	0.00	-1	-1.26	30.50	0	0	0	0	0	0	
38239	20	0.00	-1	-0.73	30.50	0	0	0	0	0	0	
38294	20	0.00	-1	-1.26	30.50	0	0	0	0	0	0	
38348	20	0.00	-1	-1.17	30.50	0	0	0	0	0	0	
38404	20	0.00	-1	-1.44	30.50	0	0	0	0	0	0	
38459	20	0.00	-1	-1.35	30.50	0	0	0	0	0	0	
38517	20	0.00	-1	-1.44	30.50	0	0	0	0	0	0	
38572	20	0.00	-1	-1.53	30.50	0	0	0	0	0	0	
38627	20	0.00	-1	-1.00	30.50	0	0	0	0	0	0	
38682	20	0.00	-1	-1.44	30.50	0	0	0	0	0	0	
38737	20	0.00	-1	-0.56	30.50	0	0	0	0	0	0	
38798	20	0.00	-1	-1.00	30.50	0	0	0	0	0	0	
38853	20	0.00	-1	-1.09	30.40	0	0	0	0	0	0	
38908	20	0.00	-1	-1.17	30.50	0	0	0	0	0	0	
38963	20	0.00	-1	-0.64	30.50	0	0	0	0	0	0	
39018	20	0.00	-1	-1.09	30.50	0	0	0	0	0	0	
39073	20	0.00	-1	-1.17	30.50	0	0	0	0	0	0	
39132	20	0.00	-1	-1.26	30.50	0	0	0	0	0	0	
39186	20	0.00	-1	-0.64	30.50	0	0	0	0	0	0	
39241	20	0.00	0	-0.73	30.50	0	0	0	0	0	0	
39297	20	0.00	-1	-1.62	30.50	0	0	0	0	0	0	
39351	20	0.00	-1	-1.35	30.50	0	0	0	0	0	0	
39406	20	0.00	-1	-1.17	30.50	0	0	0	0	0	0	
39468	20	0.00	-1	-1.35	30.50	0	0	0	0	0	0	
39522	20	0.00	-1	-1.17	30.50	0	0	0	0	0	0	
39577	20	0.00	-1	-1.09	30.50	0	0	0	0	0	0	
39633	20	0.00	-1	-1.35	30.50	0	0	0	0	0	0	
39687	20	0.00	-1	-1.35	30.50	0	0	0	0	0	0	
39742	20	0.00	-1	-1.09	30.50	0	0	0	0	0	0	
39801	20	0.00	-1	-1.35	30.50	0	0	0	0	0	0	
39856	20	0.00	-1	-1.17	30.50	0	0	0	0	0	0	
39910	20	0.00	-1	-1.17	30.50	0	0	0	0	0	0	
39965	20	0.00	-1	-1.35	30.50	0	0	0	0	0	0	
40021	20	0.00	-1	-1.35	30.50	0	0	0	0	0	0	
40076	20	0.00	-1	-1.09	30.50	0	0	0	0	0	0	
40136	20	0.00	-1	-1.09	30.50	0	0	0	0	0	0	
40192	20	0.00	-1	-0.64	30.50	0	0	0	0	0	0	
40247	20	0.00	-1	-1.44	30.50	0	0	0	0	0	0	
40301	20	0.00	-1	-1.53	30.50	0	0	0	0	0	0	
40357	20	0.00	-1	-1.44	30.50	0	0	0	0	0	0	
40415	20	0.00	-1	-1.09	30.50	0	0	0	0	0	0	
40470	20	0.00	-1	-1.35	30.50	0	0	0	0	0	0	
40524	20	0.00	-1	-0.64	30.50	0	0	0	0	0	0	
40580	20	0.00	-1	-1.35	30.50	0	0	0	0	0	0	
40635	20	0.00	-1	-0.56	30.50	0	0	0	0	0	0	
40689	20	0.00	-1	-1.17	30.50	0	0	0	0	0	0	
40748	20	0.00	-1	-1.09	30.50	0	0	0	0	0	0	
40806	20	0.00	0	-0.29	30.50	0	0	0	0	0	0	
40860	20	0.00	0	-0.38	30.50	0	0	0	0	0	0	
40916	20	0.00	0	-1.26	30.50	0	0	0	0	0	0	
40971	20	0.00	0	-0.73	30.50	0	0	0	0	0	0	
41025	20	0.00	0	-0.64	30.50	0	0	0	0	0	0	
41084	20	0.00	0	-0.56	30.50	0	0	0	0	0	0	
41139	20	0.00	0	-0.64	30.50	0	0	0	0	0	0	
41194	20	0.00	0	-0.56	30.50	0	0	0	0	0	0	
41248	20	0.00	0	-1.44	30.50	0	0	0	0	0	0	
41304	20	0.00	0	-1.09	30.50	0	0	0	0	0	0	
41359	20	0.00	0	-1.35	30.50	0	0	0	0	0	0	
41417	20	0.00	0	-0.56	30.50	0	0	0	0	0	0	
41472	20	0.00	0	-1.35	30.50	0	0	0	0	0	0	
41529	20	0.00	-1	-1.09	30.50	0	0	0	0	0	0	
41584	20	0.00	0	-0.64	30.50	0	0	0	0	0	0	
41640	20	0.00	0	-0.73	30.50	0	0	0	0	0	0	
41698	20	0.00	0	-1.17	30.50	0	0	0	0	0	0	
41752	20	0.00	-1	-1.62	30.50	0	0	0	0	0	0	
41808	20	0.00	0	-0.38	30.50	0	0	0	0	0	0	
41863	20	0.00	0	-1.17	30.50	0	0	0	0	0	0	
41917	20	0.00	-1	-1.44	30.50	0	0	0	0	0	0	
41972	20	0.00	-1	-1.53	30.50	0	0	0	0	0	0	
42031	20	0.00	-1	-0.64	30.50	0	0	0	0	0	0	
42086	20	0.00	0	-0.47	30.50	0	0	0	0	0	0	
42140	20	0.00	0	-0.56	30.50	0	0	0	0	0	0	
42199	20	0.00	0	-0.56	30.50	0	0	0	0	0	0	
42253	20	0.00	0	-0.47	30.50	0	0	0	0	0	0	
42308	20	0.00	0	-0.29	30.50	0	0	0	0	0	0	
42367	20	0.00	0	-0.56	30.50	0	0	0	0	0	0	
42422	20	0.00	0	-0.38	30.50	0	0	0	0	0	0	
42476	20	0.00	0	-0.38	30.50	0	0	0	0	0	0	
42532	20	0.00	0	-0.47	30.50	0	0	0	0	0	0	
42587	20	0.00	0	-1.17	30.50	0	0	0	0	0	0	
42641	20	0.00	0	-0.21	30.50	0	0	0	0	0	0	
42699	20	0.00	0	-1.00	30.50	0	0	0	0	0	0	
42755	20	0.00	0	-1.26	30.50	0	0	0	0	0	0	
42809	20	0.00	0	-0.38	30.50	0	0	0	0	0	0	
42864	20	0.00	0	-0.29	30.50	0	0	0	0	0	0	
42922	20	0.00	0	-1.26	30.50	0	0	0	0	0	0	
42980	20	0.00	0	-1.00	30.50	0	0	0	0	0	0	
43035	20	0.00	0	-1.00	30.50	0	0	0	0	0	0	
43090	20	0.00	0	-1.00	30.50	0	0	0	0	0	0	
43145	20	0.00	0	-0.56	30.50	0	0	0	0	0	0	
43200	20	0.00	0	-0.56	30.50	0	0	0	0	0	0	
43254	20	0.00	0	-0.56	30.50	0	0	0	0	0	0	
43313	20	0.00	0	-0.73	30.50	0	0	0	0	0	0	
43368	20	0.00	0	-0.38	30.50	0	0	0	0	0	0	
43423	20	0.00	0	-0.29	30.50	0	0	0	0	0	0	
43478	20	0.00	0	-0.38	30.50	0	0	0	0	0	0	
43533	20	0.00	0	-0.64	30.50	0	0	0	0	0	0	
43590	20	0.00	0	-0.38	30.50	0	0	0	0	0	0	
43649	20	0.00	0	-0.64	30.50	0	0	0	0	0	0	
43703	20	0.00	0	-0.38	30.50	0	0	0	0	0	0	
43758	20	0.00	0	-0.03	30.50	0	0	0	0	0	0	
43813	20	0.00	0	-1.17	30.50	0	0	0	0	0	0	
43868	20	0.00	0	-1.00	30.50	0	0	0	0	0	0	
43922	20	0.00	0	-0.38	30.50	0	0	0	0	0	0	
43980	20	0.00	0	-1.35	30.50	0	0	0	0	0	0	
44036	20	0.00	0	-1.35	30.50	0	0	0	0	0	0	
44090	20	0.00	0	-0.73	30.50	0	0	0	0	0	0	
44145	20	0.00	0	-0.64	30.50	0	0	0	0	0	0	
44200	20	0.00	0	-1.35	30.50	0	0	0	0	0	0	
44255	20	0.00	-1	-1.35	30.50	0	0	0	0	0	0	
44324	20	0.00	0	-0.38	30.50	0	0	0	0	0	0	
44378	20	0.00	0	-0.73	30.50	0	0	0	0	0	0	
44433	20	0.00	0	-1.35	30.50	0	0	0	0	0	0	
44487	20	0.00	0	-0.64	30.50	0	0	0	0	0	0	
44546	20	0.00	0	-0.73	30.50	0	0	0	0	0	0	
44601	20	0.00	0	-0.73	30.50	0	0	0	0	0	0	
44655	20	0.00	0	-0.73	30.50	0	0	0	0	0	0	
44711	20	0.00	0	-1.00	30.50	0	0	0	0	0	0	
44765	20	0.00	0	-1.09	30.50	0	0	0	0	0	0	
44820	20	0.00	0	-1.09	30.50	0	0	0	0	0	0	
44879	20	0.00	0	-1.00	30.50	0	0	0	0	0	0	
44933	20	0.00	0	-1.00	30.50	0	0	0	0	0	0	
44990	20	0.00	0	-0.64	30.50	0	0	0	0	0	0	
45045	20	0.00	0	-0.56	30.50	0	0	0	0	0	0	
45100	20	0.00	0	-0.56	30.50	0	0	0	0	0	0	
45155	20	0.00	0	-0.56	30.50	0	0	0	0	0	0	
45213	20	0.00	0	-0.64	30.50	0	0	0	0	0	0	
45269	20	0.00	0	-0.47	30.50	0	0	0	0	0	0	
45324	20	0.00	0	-0.12	30.50	0	0	0	0	0	0	
45378	20	0.00	0	-0.64	30.50	0	0	0	0	0	0	
45434	20	0.00	0	-1.17	30.50	0	0	0	0	0	0	
45489	20	0.00	0	-0.64	30.60	0	0	0	0	0	0	
45547	20	0.00	0	-1.00	30.50	0	0	0	0	0	0	
45603	20	0.00	0	-0.56	30.50	0	0	0	0	0	0	
45657	20	0.00	0	-0.21	30.50	0	0	0	0	0	0	
45715	20	0.00	0	-0.38	30.60	0	0	0	0	0	0	
45769	20	0.00	0	-0.29	30.60	0	0	0	0	0	0	
45829	20	0.00	0	-0.29	30.50	0	0	0	0	0	0	
45883	20	0.00	0	-0.73	30.50	0	0	0	0	0	0	
45938	20	0.00	0	-0.29	30.50	0	0	0	0	0	0	
45994	20	0.00	0	-0.21	30.60	0	0	0	0	0	0	
46048	20	0.00	0	-0.29	30.50	0	0	0	0	0	0	
46103	20	0.00	0	-0.73	30.60	0	0	0	0	0	0	
46162	20	0.00	0	-0.73	30.50	0	0	0	0	0	0	
46217	20	0.00	0	-1.00	30.60	0	0	0	0	0	0	
46272	20	0.00	0	-1.26	30.60	0	0	0	0	0	0	
46326	20	0.00	0	-0.56	30.60	0	0	0	0	0	0	
46384	20	0.00	0	-0.38	30.60	0	0	0	0	0	0	
46439	20	0.00	0	-0.73	30.60	0	0	0	0	0	0	
46497	20	0.00	0	-1.00	30.60	0	0	0	0	0	0	
46553	20	0.00	0	-0.21	30.60	0	0	0	0	0	0	
46608	20	0.00	0	-0.12	30.60	0	0	0	0	0	0	
46662	20	0.00	0	-0.56	30.60	0	0	0	0	0	0	
46718	20	0.00	0	-0.56	30.50	0	0	0	0	0	0	
46773	20	0.00	0	-0.29	30.60	0	0	0	0	0	0	
46831	20	0.00	0	-0.03	30.60	0	0	0	0	0	0	
46887	20	0.00	0	-0.47	30.60	0	0	0	0	0	0	
46941	20	0.00	0	-0.64	30.60	0	0	0	0	0	0	
46996	20	0.00	0	-0.73	30.60	0	0	0	0	0	0	
47051	20	0.00	0	-1.00	30.60	0	0	0	0	0	0	
47113	20	0.00	0	-0.64	30.60	0	0	0	0	0	0	
47167	20	0.00	0	-1.00	30.60	0	0	0	0	0	0	
47222	20	0.00	0	-0.64	30.60	0	0	0	0	0	0	
47278	20	0.00	0	-0.29	30.60	0	0	0	0	0	0	
47332	20	0.00	0	-1.00	30.60	0	0	0	0	0	0	
47387	20	0.00	0	-0.64	30.60	0	0	0	0	0	0	
47447	20	0.00	0	-0.03	30.60	0	0	0	0	0	0	
47501	20	0.00	0	-0.47	30.60	0	0	0	0	0	0	
47556	20	0.00	0	-0.12	30.60	0	0	0	0	0	0	
47612	20	0.00	0	-1.09	30.60	0	0	0	0	0	0	
47666	20	0.00	0	-1.26	30.60	0	0	0	0	0	0	
47721	20	0.00	0	-1.09	30.60	0	0	0	0	0	0	
47783	20	0.00	0	-0.47	30.60	0	0	0	0	0	0	
47838	20	0.00	0	-0.64	30.60	0	0	0	0	0	0	
47892	20	0.00	0	-0.56	30.60	0	0	0	0	0	0	
47947	20	0.00	0	-0.47	30.60	0	0	0	0	0	0	
48003	20	0.00	0	-1.09	30.60	0	0	0	0	0	0	
48057	20	0.00	0	-1.00	30.60	0	0	0	0	0	0	
48116	20	0.00	0	-0.47	30.60	0	0	0	0	0	0	
48171	20	0.00	0	-0.64	30.60	0	0	0	0	0	0	
48226	20	0.00	0	-0.03	30.60	0	0	0	0	0	0	
48281	20	0.00	0	-0.64	30.60	0	0	0	0	0	0	
48336	20	0.00	0	-0.64	30.60	0	0	0	0	0	0	
48391	20	0.00	0	-0.12	30.60	0	0	0	0	0	0	
48449	20	0.00	0	-0.47	30.60	0	0	0	0	0	0	
48502	20	0.00	0	-0.73	30.60	0	0	0	0	0	0	
48558	20	0.00	0	-0.56	30.60	0	0	0	0	0	0	
48612	20	0.00	0	-0.64	30.60	0	0	0	0	0	0	
48667	20	0.00	0	0.06	30.60	0	0	0	0	0	0	
48723	20	0.00	0	-0.56	30.60	0	0	0	0	0	0	
48781	20	0.00	0	-1.00	30.60	0	0	0	0	0	0	
48836	20	0.00	0	-1.09	30.60	0	0	0	0	0	0	
48891	20	0.00	0	-0.64	30.60	0	0	0	0	0	0	
48946	20	0.00	0	-0.64	30.60	0	0	0	0	0	0	
49001	20	0.00	0	-0.64	30.60	0	0	0	0	0	0	
49056	20	0.00	0	-0.56	30.60	0	0	0	0	0	0	
49115	20	0.00	0	-1.09	30.60	0	0	0	0	0	0	
49172	20	0.00	0	-1.00	30.60	0	0	0	0	0	0	
49227	20	0.00	0	-0.47	30.60	0	0	0	0	0	0	
49282	20	0.00	0	-1.00	30.60	0	0	0	0	0	0	
49337	20	0.00	0	-0.56	30.60	0	0	0	0	0	0	
49395	20	0.00	0	-0.21	30.60	0	0	0	0	0	0	
49451	20	0.00	0	0.06	30.60	0	0	0	0	0	0	
49506	20	0.00	0	0.59	30.60	0	0	0	0	0	0	
49560	20	0.00	0	4.21	30.60	0	0	0	0	0	0	
49616	20	0.00	1	5.88	30.60	0	0	0	0	0	0	
49671	20	0.00	2	7.82	30.60	0	0	0	0	0	0	
49729	20	0.00	4	10.38	30.60	0	0	0	0	0	0	
49785	20	0.00	5	11.00	30.60	0	0	0	0	0	0	
49839	40	0.00	6	10.82	30.60	0	0	0	0	0	0	
49903	40	0.00	7	12.06	30.60	0	0	0	0	0	0	
49965	40	0.00	8	13.47	30.60	0	0	0	0	0	0	
50026	40	0.00	10	15.24	30.60	0	0	0	0	0	0	
50092	40	0.00	11	17.53	30.60	0	0	0	0	0	0	
50153	40	0.00	13	19.30	30.60	0	0	0	0	0	0	
50215	40	0.00	14	20.53	30.60	0	0	0	0	0	0	
50276	40	0.00	16	21.42	30.60	0	0	0	0	0	0	
50337	40	0.00	17	22.65	30.60	0	0	0	0	0	0	
50399	40	0.00	18	23.62	30.60	0	0	0	0	0	0	
50464	40	0.00	19	24.60	30.60	0	0	0	0	0	0	
50526	40	0.00	20	25.48	30.60	0	0	0	0	0	0	
50587	40	0.00	22	26.81	30.50	0	0	0	0	0	0	
50652	40	0.00	23	27.96	30.50	0	0	0	0	0	0	
50713	40	0.00	24	29.01	30.50	0	0	0	0	0	0	
50779	40	0.00	25	29.72	30.50	0	0	0	0	0	0	
50840	40	0.00	26	30.52	30.50	0	0	0	0	0	0	
50905	40	0.00	27	31.58	30.50	0	0	0	0	0	0	
50969	40	0.00	28	32.02	30.50	0	0	0	0	0	0	
51032	40	0.00	29	32.82	30.50	0	0	0	0	0	0	
51093	40	0.00	30	33.44	30.50	0	0	0	0	0	0	
51158	40	0.00	30	33.97	30.50	0	0	0	0	0	0	
51220	40	0.00	31	35.03	30.50	0	0	0	0	0	0	
51282	40	0.00	32	35.56	30.50	0	0	0	0	0	0	
51343	40	0.00	33	36.00	30.50	0	0	0	0	0	0	
51407	40	0.00	33	36.98	30.50	0	0	0	0	0	0	
51468	40	0.00	34	37.24	30.50	0	0	0	0	0	0	
51534	40	0.00	35	37.50	30.50	0	0	0	0	0	0	
51595	40	0.00	35	37.95	30.50	0	0	0	0	0	0	
51656	40	0.00	36	38.92	30.50	0	0	0	0	0	0	
51718	40	0.00	37	39.54	30.50	0	0	0	0	0	0	
51783	40	0.00	37	39.63	30.50	0	0	0	0	0	0	
51848	40	0.00	38	40.34	30.50	0	0	0	0	0	0	
51916	40	0.00	38	41.31	30.50	0	0	0	0	0	0	
51981	40	0.00	39	41.31	30.50	0	0	0	0	0	0	
52047	40	0.00	39	41.58	30.50	0	0	0	0	0	0	
52111	40	0.00	40	41.93	30.50	0	0	0	0	0	0	
52179	40	0.00	40	41.75	30.50	0	0	0	0	0	0	
52246	40	0.00	40	41.84	30.50	0	0	0	0	0	0	
52312	40	0.00	41	42.19	30.50	0	0	0	0	0	0	
52376	40	0.00	41	42.46	30.50	0	0	0	0	0	0	
52441	40	0.00	41	42.73	30.50	0	0	0	0	0	0	
52506	40	0.00	41	42.28	30.50	0	0	0	0	0	0	
52571	40	0.00	41	42.90	30.50	0	0	0	0	0	0	
52639	40	0.00	42	42.73	30.50	0	0	0	0	0	0	
52704	40	0.00	42	43.17	30.50	0	0	0	0	0	0	
52768	40	0.00	42	42.19	30.50	0	0	0	0	0	0	
52834	40	0.00	42	42.73	30.50	0	0	0	0	0	0	
52899	40	0.00	42	42.64	30.50	0	0	0	0	0	0	
52966	40	0.00	42	42.55	30.50	0	0	0	0	0	0	
53035	40	0.00	42	42.19	30.50	0	0	0	0	0	0	
53099	40	0.00	42	42.46	30.50	0	0	0	0	0	0	
53164	40	0.00	42	41.40	30.50	0	0	0	0	0	0	
53228	40	0.00	41	40.78	30.50	0	0	0	0	0	0	
53294	40	0.00	41	40.78	30.50	0	0	0	0	0	0	
53358	40	0.00	41	40.16	30.50	0	0	0	0	0	0	
53427	40	0.00	40	39.27	30.50	0	0	0	0	0	0	
53491	40	0.00	40	39.63	30.50	0	0	0	0	0	0	
53556	40	0.00	40	39.19	30.50	0	0	0	0	0	0	
53621	40	0.00	40	39.19	30.50	0	0	0	0	0	0	
53686	40	0.00	39	38.92	30.50	0	0	0	0	0	0	
53750	60	0.00	39	38.30	30.50	0	0	0	0	0	0	
53819	60	0.00	39	39.45	30.50	0	0	0	0	0	0	
53881	60	0.00	38	32.55	30.50	0	0	0	0	0	0	
53942	60	0.00	36	27.69	30.50	0	0	0	0	0	0	
54003	60	0.00	34	26.19	30.50	0	0	0	0	0	0	
54065	60	0.00	32	25.31	30.50	0	0	0	0	0	0	
54130	60	0.00	30	23.54	30.50	0	0	0	0	0	0	
54192	60	0.00	28	22.48	30.50	0	0	0	0	0	0	
54253	60	0.00	27	21.15	30.50	0	0	0	0	0	0	
54315	60	0.00	25	20.18	30.50	0	0	0	0	0	0	
54376	70	0.00	24	19.56	30.50	0	0	0	0	0	0	
54441	70	0.00	23	18.95	30.50	0	0	0	0	0	0	
54505	70	0.00	22	17.80	30.50	0	0	0	0	0	0	
54573	70	0.00	21	17.35	30.50	0	0	0	0	0	0	
54637	70	0.00	20	17.97	30.50	0	0	0	0	0	0	
54702	70	0.00	20	18.59	30.50	0	0	0	0	0	0	
54767	70	0.00	19	16.83	30.50	0	0	0	0	0	0	
54832	70	0.00	18	15.15	30.50	0	0	0	0	0	0	
54900	70	0.00	17	13.38	30.50	0	0	0	0	0	0	
54965	70	0.00	16	13.47	30.50	0	0	0	0	0	0	
55029	70	0.00	15	11.88	30.50	0	0	0	0	0	0	
55094	70	0.00	14	9.85	30.50	0	0	0	0	0	0	
55158	70	0.00	13	9.23	30.50	0	0	0	0	0	0	
55224	70	0.00	12	8.71	30.50	0	0	0	0	0	0	
55292	70	0.00	12	10.12	30.50	0	0	0	0	0	0	
55359	70	0.00	11	10.20	30.50	0	0	0	0	0	0	
55424	70	0.00	11	10.20	30.50	0	0	0	0	0	0	
55488	70	0.00	11	10.29	30.50	0	0	0	0	0	0	
55553	70	0.00	11	13.91	30.50	0	0	0	0	0	0	
55621	70	0.00	12	17.53	30.50	0	0	0	0	0	0	
55686	70	0.00	13	14.88	30.50	0	0	0	0	0	0	
55750	70	0.00	12	11.26	30.50	0	0	0	0	0	0	
55815	70	0.00	12	9.85	30.50	0	0	0	0	0	0	
55879	70	0.00	11	10.12	30.50	0	0	0	0	0	0	
55944	70	0.00	11	10.12	30.50	0	0	0	0	0	0	
56014	70	0.00	11	10.03	30.50	0	0	0	0	0	0	
56085	70	0.00	10	9.94	30.50	0	0	0	0	0	0	
56160	70	0.00	10	8.18	30.50	0	0	0	0	0	0	
56224	70	0.00	9	6.94	30.50	0	0	0	0	0	0	
56289	70	0.00	8	5.71	30.50	0	0	0	0	0	0	
56358	70	0.00	7	3.50	30.50	0	0	0	0	0	0	
56422	70	0.00	6	2.80	30.60	0	0	0	0	0	0	
56487	70	0.00	5	0.86	30.50	0	0	0	0	0	0	
56551	70	0.00	4	-0.64	30.50	0	0	0	0	0	0	
56616	70	0.00	3	-0.38	30.60	0	0	0	0	0	0	
56680	70	0.00	2	-0.73	30.60	0	0	0	0	0	0	
56749	70	0.00	1	-1.09	30.60	0	0	0	0	0	0	
56813	70	0.00	1	-0.56	30.60	0	0	0	0	0	0	
56878	70	0.00	0	-1.35	30.60	0	0	0	0	0	0	
56942	70	0.00	0	-1.17	30.60	0	0	0	0	0	0	
57010	70	0.00	0	-1.26	30.60	0	0	0	0	0	0	
57078	70	0.00	0	-1.26	30.60	0	0	0	0	0	0	
57143	70	0.00	0	-0.56	30.60	0	0	0	0	0	0	
57208	70	0.00	0	-1.09	30.60	0	0	0	0	0	0	
57273	70	0.00	0	-1.17	30.60	0	0	0	0	0	0	
57338	70	0.00	0	-1.53	30.60	0	0	0	0	0	0	
57402	70	0.00	0	-1.44	30.60	0	0	0	0	0	0	
57471	70	0.00	-1	-1.70	30.60	0	0	0	0	0	0	
57538	70	0.00	0	-0.64	30.60	0	0	0	0	0	0	
57604	70	0.00	-1	-1.35	30.60	0	0	0	0	0	0	
57671	70	0.00	-1	-1.35	30.60	0	0	0	0	0	0	
57740	70	0.00	-1	-1.35	30.60	0	0	0	0	0	0	
57810	70	0.00	-1	-1.44	30.60	0	0	0	0	0	0	
57882	70	0.00	-1	-1.09	30.60	0	0	0	0	0	0	
57950	70	0.00	-1	-1.35	30.60	0	0	0	0	0	0	
58017	70	0.00	-1	-1.62	30.60	0	0	0	0	0	0	
58086	70	0.00	-1	-1.26	30.60	0	0	0	0	0	0	
58154	70	0.00	-1	-1.44	30.60	0	0	0	0	0	0	
58219	70	0.00	-1	-1.00	30.60	0	0	0	0	0	0	
58291	70	0.00	-1	-1.00	30.60	0	0	0	0	0	0	
58358	70	0.00	-1	-1.26	30.60	0	0	0	0	0	0	
58427	70	0.00	-1	-1.09	30.60	0	0	0	0	0	0	
58495	70	0.00	-1	-1.53	30.60	0	0	0	0	0	0	
58563	70	0.00	-1	-1.44	30.60	0	0	0	0	0	0	
58631	70	0.00	-1	-1.35	30.60	0	0	0	0	0	0	
58706	70	0.00	-1	-1.17	30.60	0	0	0	0	0	0	
58773	70	0.00	-1	-1.35	30.60	0	0	0	0	0	0	
58841	70	0.00	-1	-1.17	30.60	0	0	0	0	0	0	
58909	70	0.00	-1	-1.00	30.60	0	0	0	0	0	0	
58977	70	0.00	-1	-1.09	30.60	0	0	0	0	0	0	
59049	70	0.00	-1	-1.44	30.60	0	0	0	0	0	0	
59117	70	0.00	-1	-1.00	30.60	0	0	0	0	0	0	
59185	70	0.00	-1	-1.09	30.60	0	0	0	0	0	0	
59253	70	0.00	-1	-1.53	30.60	0	0	0	0	0	0	
59321	70	0.00	-1	-1.79	30.60	0	0	0	0	0	0	
59390	70	0.00	-1	-1.26	30.60	0	0	0	0	0	0	
59461	70	0.00	-1	-1.53	30.60	0	0	0	0	0	0	
59532	70	0.00	-1	-0.73	30.60	0	0	0	0	0	0	
59600	70	0.00	-1	-1.62	30.60	0	0	0	0	0	0	
59668	70	0.00	-1	-1.35	30.60	0	0	0	0	0	0	
59736	70	0.00	-1	-1.44	30.60	0	0	0	0	0	0	
59803	70	0.00	-1	-1.00	30.60	0	0	0	0	0	0	
59876	70	0.00	-1	-1.17	30.60	0	0	0	0	0	0	
59944	70	0.00	-1	-1.17	30.60	0	0	0	0	0	0	
60012	70	0.00	-1	-1.62	30.60	0	0	0	0	0	0	
60080	70	0.00	-1	-0.73	30.60	0	0	0	0	0	0	
60147	70	0.00	-1	-1.26	30.60	0	0	0	0	0	0	
60216	70	0.00	-1	-1.26	30.60	0	0	0	0	0	0	
60288	70	0.00	-1	-1.17	30.60	0	0	0	0	0	0	
60358	70	0.00	-1	-0.64	30.60	0	0	0	0	0	0	
60426	70	0.00	-1	-1.17	30.60	0	0	0	0	0	0	
60495	70	0.00	-1	-0.56	30.60	0	0	0	0	0	0	
60562	70	0.00	-1	-1.35	30.60	0	0	0	0	0	0	
60635	70	0.00	-1	-1.35	30.60	0	0	0	0	0	0	
60702	70	0.00	-1	-1.62	30.60	0	0	0	0	0	0	
60770	70	0.00	-1	-1.44	30.60	0	0	0	0	0	0	
60839	70	0.00	-1	-1.09	30.60	0	0	0	0	0	0	
60906	70	0.00	-1	-1.26	30.60	0	0	0	0	0	0	
60975	70	0.00	-1	-1.35	30.60	0	0	0	0	0	0	
61046	70	0.00	-1	-1.26	30.60	0	0	0	0	0	0	
61114	70	0.00	-1	-1.35	30.60	0	0	0	0	0	0	
61185	70	0.00	-1	-1.44	30.60	0	0	0	0	0	0	
61253	70	0.00	-1	-1.35	30.60	0	0	0	0	0	0	
61321	70	0.00	-1	-1.44	30.60	0	0	0	0	0	0	
61390	70	0.00	-1	-1.70	30.60	0	0	0	0	0	0	
61461	70	0.00	-1	-1.35	30.60	0	0	0	0	0	0	
61529	70	0.00	-1	-1.35	30.60	0	0	0	0	0	0	
61597	70	0.00	-1	-1.26	30.60	0	0	0	0	0	0	
61665	70	0.00	-1	-1.26	30.60	0	0	0	0	0	0	
61733	70	0.00	-1	-1.79	30.60	0	0	0	0	0	0	
61801	70	0.00	-1	-1.62	30.60	0	0	0	0	0	0	
61873	70	0.00	-1	-1.62	30.60	0	0	0	0	0	0	
61941	70	0.00	-1	-1.26	30.60	0	0	0	0	0	0	
62011	70	0.00	-1	-1.17	30.60	0	0	0	0	0	0	
62080	70	0.00	-1	-1.79	30.60	0	0	0	0	0	0	
62147	70	0.00	-1	-1.44	30.60	0	0	0	0	0	0	
62219	70	0.00	-1	-1.62	30.60	0	0	0	0	0	0	
62284	70	0.00	-1	-1.35	30.60	0	0	0	0	0	0	
62352	70	0.00	-1	-1.44	30.60	0	0	0	0	0	0	
62421	70	0.00	-1	-1.53	30.60	0	0	0	0	0	0	
62488	70	0.00	-1	-1.62	30.60	0	0	0	0	0	0	
62556	70	0.00	-1	-1.70	30.60	0	0	0	0	0	0	
62628	70	0.00	-1	-1.53	30.60	0	0	0	0	0	0	
62696	70	0.00	-1	-1.79	30.60	0	0	0	0	0	0	
62764	70	0.00	-1	-1.53	30.60	0	0	0	0	0	0	
62834	70	0.00	-1	-1.62	30.60	0	0	0	0	0	0	
62903	70	0.00	-1	-1.53	30.60	0	0	0	0	0	0	
62971	70	0.00	-1	-1.09	30.60	0	0	0	0	0	0	
63042	70	0.00	-1	-1.26	30.60	0	0	0	0	0	0	
63111	70	0.00	-1	-1.79	30.60	0	0	0	0	0	0	
63178	70	0.00	-1	-1.88	30.60	0	0	0	0	0	0	
63246	70	0.00	-1	-1.35	30.70	0	0	0	0	0	0	
63315	70	0.00	-1	-1.17	30.70	0	0	0	0	0	0	
63382	70	0.00	-1	-1.70	30.70	0	0	0	0	0	0	
63442	70	0.00	-1	-1.26	30.70	0	0	0	0	0	0	
63496	70	0.00	-1	-1.88	30.70	0	0	0	0	0	0	
63551	70	0.00	-1	-1.53	30.70	0	0	0	0	0	0	
63606	70	0.00	-1	-1.70	30.70	0	0	0	0	0	0	
63664	70	0.00	-1	-1.62	30.70	0	0	0	0	0	0	
63722	70	0.00	-1	-2.15	30.70	0	0	0	0	0	0	
63777	70	0.00	-1	-1.35	30.70	0	0	0	0	0	0	
63832	70	0.00	-1	-1.35	30.70	0	0	0	0	0	0	
63887	70	0.00	-1	-1.53	30.70	0	0	0	0	0	0	
63942	70	0.00	-1	-1.26	30.70	0	0	0	0	0	0	
63997	70	0.00	-1	-1.88	30.70	0	0	0	0	0	0	
64056	70	0.00	-1	-0.38	30.70	0	0	0	0	0	0	
64110	70	0.00	-1	-1.17	30.70	0	0	0	0	0	0	
64166	70	0.00	-1	-1.44	30.70	0	0	0	0	0	0	
64221	70	0.00	-1	-1.53	30.70	0	0	0	0	0	0	
64275	70	0.00	-1	-1.97	30.70	0	0	0	0	0	0	
64332	70	0.00	-1	-1.53	30.70	0	0	0	0	0	0	
64392	70	0.00	-1	-1.79	30.70	0	0	0	0	0	0	
64446	70	0.00	-1	-1.44	30.70	0	0	0	0	0	0	
64501	70	0.00	-1	-1.53	30.70	0	0	0	0	0	0	
64557	70	0.00	-1	-1.79	30.70	0	0	0	0	0	0	
64611	70	0.00	-1	-1.17	30.70	0	0	0	0	0	0	
64666	70	0.00	-1	-1.17	30.70	0	0	0	0	0	0	
64725	70	0.00	-1	-1.44	30.70	0	0	0	0	0	0	
64780	70	0.00	-1	-1.26	30.70	0	0	0	0	0	0	
64834	70	0.00	-1	-1.09	30.70	0	0	0	0	0	0	
64890	70	0.00	-1	-1.35	30.70	0	0	0	0	0	0	
64945	70	0.00	-1	-1.35	30.70	0	0	0	0	0	0	
65006	70	0.00	-1	-1.09	30.70	0	0	0	0	0	0	
65061	70	0.00	-1	-1.26	30.70	0	0	0	0	0	0	
65116	70	0.00	-1	-1.35	30.70	0	0	0	0	0	0	
65171	70	0.00	-1	-1.35	30.70	0	0	0	0	0	0	
65225	70	0.00	-1	-1.00	30.70	0	0	0	0	0	0	
65281	70	0.00	-1	-0.64	30.70	0	0	0	0	0	0	
65339	70	0.00	-1	-1.00	30.70	0	0	0	0	0	0	
65394	70	0.00	-1	-1.79	30.70	0	0	0	0	0	0	
65449	70	0.00	-1	-1.26	30.70	0	0	0	0	0	0	
65504	70	0.00	-1	-1.44	30.70	0	0	0	0	0	0	
65559	70	0.00	-1	-1.00	30.70	0	0	0	0	0	0	
65614	70	0.00	-1	-1.70	30.70	0	0	0	0	0	0	
65675	70	0.00	-1	-1.70	30.70	0	0	0	0	0	0	
65730	70	0.00	-1	-1.26	30.70	0	0	0	0	0	0	
65785	70	0.00	-1	-1.70	30.70	0	0	0	0	0	0	
65840	70	0.00	-1	-1.26	30.70	0	0	0	0	0	0	
65895	70	0.00	-1	-1.88	30.70	0	0	0	0	0	0	
65949	70	0.00	-1	-1.35	30.70	0	0	0	0	0	0	
66009	70	0.00	-1	-1.97	30.70	0	0	0	0	0	0	
66063	70	0.00	-1	-1.79	30.70	0	0	0	0	0	0	
66118	70	0.00	-1	-1.97	30.70	0	0	0	0	0	0	
66174	70	0.00	-1	-1.79	30.70	0	0	0	0	0	0	
66228	70	0.00	-1	-1.62	30.70	0	0	0	0	0	0	
66283	70	0.00	-1	-1.44	30.70	0	0	0	0	0	0	
66345	70	0.00	-1	-1.70	30.70	0	0	0	0	0	0	
66399	70	0.00	-1	-1.62	30.70	0	0	0	0	0	0	
66454	70	0.00	-1	-1.53	30.70	0	0	0	0	0	0	
66510	70	0.00	-1	-1.44	30.70	0	0	0	0	0	0	
66564	70	0.00	-1	-1.44	30.70	0	0	0	0	0	0	
66622	70	0.00	-1	-1.44	30.70	0	0	0	0	0	0	
66677	70	0.00	-1	-1.44	30.70	0	0	0	0	0	0	
66733	70	0.00	-1	-1.70	30.70	0	0	0	0	0	0	
66787	70	0.00	-1	-1.53	30.70	0	0	0	0	0	0	
66842	70	0.00	-1	-1.53	30.70	0	0	0	0	0	0	
66898	70	0.00	-1	-1.17	30.70	0	0	0	0	0	0	
66956	70	0.00	-1	-1.26	30.70	0	0	0	0	0	0	
67011	70	0.00	-1	-1.44	30.70	0	0	0	0	0	0	
67069	70	0.00	-1	-1.35	30.70	0	0	0	0	0	0	
67123	70	0.00	-1	-1.79	30.70	0	0	0	0	0	0	
67178	70	0.00	-1	-1.35	30.70	0	0	0	0	0	0	
67233	70	0.00	-1	-1.53	30.70	0	0	0	0	0	0	
67292	70	0.00	-1	-1.35	30.70	0	0	0	0	0	0	
67347	70	0.00	-1	-1.17	30.70	0	0	0	0	0	0	
67401	70	0.00	-1	-1.44	30.70	0	0	0	0	0	0	
67457	70	0.00	-1	-1.70	30.70	0	0	0	0	0	0	
67512	70	0.00	-1	-1.09	30.70	0	0	0	0	0	0	
67566	70	0.00	-1	-1.70	30.70	0	0	0	0	0	0	
67625	70	0.00	-1	-1.26	30.70	0	0	0	0	0	0	
67680	70	0.00	-1	-1.26	30.70	0	0	0	0	0	0	
67737	70	0.00	-1	-1.09	30.70	0	0	0	0	0	0	
67793	70	0.00	-1	-1.53	30.70	0	0	0	0	0	0	
67847	70	0.00	-1	-1.62	30.70	0	0	0	0	0	0	
67906	70	0.00	-1	-1.62	30.70	0	0	0	0	0	0	
67961	70	0.00	-1	-1.53	30.70	0	0	0	0	0	0	
68016	70	0.00	-1	-1.53	30.70	0	0	0	0	0	0	
68070	70	0.00	-1	-1.35	30.70	0	0	0	0	0	0	
68125	70	0.00	-1	-1.17	30.70	0	0	0	0	0	0	
68180	70	0.00	-1	-1.17	30.70	0	0	0	0	0	0	
68238	70	0.00	-1	-1.53	30.70	0	0	0	0	0	0	
68293	70	0.00	-1	-1.35	30.70	0	0	0	0	0	0	
68349	70	0.00	-1	-1.53	30.70	0	0	0	0	0	0	
68413	70	0.00	-1	-1.88	30.70	0	0	0	0	0	0	
68467	70	0.00	-1	-1.09	30.70	0	0	0	0	0	0	
68527	70	0.00	-1	-1.35	30.70	0	0	0	0	0	0	
68581	70	0.00	-1	-1.79	30.70	0	0	0	0	0	0	
68636	70	0.00	-1	-1.79	30.70	0	0	0	0	0	0	
68692	70	0.00	-1	-1.53	30.70	0	0	0	0	0	0	
68746	70	0.00	-1	-1.09	30.70	0	0	0	0	0	0	
68801	70	0.00	-1	-1.53	30.70	0	0	0	0	0	0	
68860	70	0.00	-1	-1.79	30.70	0	0	0	0	0	0	
68914	70	0.00	-1	-1.17	30.70	0	0	0	0	0	0	
68969	70	0.00	-1	-1.53	30.70	0	0	0	0	0	0	
69024	70	0.00	-1	-1.79	30.70	0	0	0	0	0	0	
69082	70	0.00	-1	-1.53	30.70	0	0	0	0	0	0	
69140	70	0.00	-1	-1.53	30.70	0	0	0	0	0	0	
69195	70	0.00	-1	-1.44	30.70	0	0	0	0	0	0	
69250	70	0.00	-1	-1.44	30.70	0	0	0	0	0	0	
69305	70	0.00	-1	-1.88	30.70	0	0	0	0	0	0	
69360	70	0.00	-1	-1.62	30.70	0	0	0	0	0	0	
69415	70	0.00	-1	-1.70	30.70	0	0	0	0	0	0	
69474	70	0.00	-1	-1.79	30.70	0	0	0	0	0	0	
69528	70	0.00	-1	-1.62	30.70	0	0	0	0	0	0	
69584	70	0.00	-1	-1.44	30.70	0	0	0	0	0	0	
69639	70	0.00	-1	-1.70	30.80	0	0	0	0	0	0	
69693	70	0.00	-1	-1.44	30.70	0	0	0	0	0	0	
69752	70	0.00	-1	-1.44	30.70	0	0	0	0	0	0	
69810	70	0.00	-1	-1.62	30.70	0	0	0	0	0	0	
69865	80	0.00	-1	-1.44	30.70	0	0	0	0	0	0	
