Ms	Code	A0	CA	MA	T	AX	AY	AZ	GX	GY	GZ
0	20	0.00	0	0.60	29.20	0	-8	0	-136	-821	-6	
106	20	0.00	0	1.83	29.20	0	-7	0	-302	-15	-12	
210	20	0.00	1	1.39	29.20	0	-7	0	-268	-554	27	
317	20	0.00	1	1.22	29.20	0	-7	0	-178	-293	-111	
422	20	0.00	1	1.48	29.20	0	-8	0	-177	-308	-31	
529	20	0.00	1	1.30	29.20	0	-8	0	-276	-439	13	
635	20	0.00	1	1.13	29.30	0	-8	0	-285	-522	-37	
748	20	0.00	1	1.48	29.30	0	-7	0	-296	167	105	
852	20	0.00	1	2.00	29.20	0	-8	0	-120	-714	-183	
959	20	0.00	1	1.83	29.20	0	-8	0	-347	-35	136	
1064	20	0.00	1	1.30	29.20	0	-8	0	-264	609	177	
1172	20	0.00	1	2.17	29.20	0	-8	0	-236	-327	-156	
1279	20	0.00	1	1.74	29.30	0	-8	0	-411	-593	-80	
1386	20	0.00	1	1.91	29.30	0	-7	0	-297	-488	-83	
1493	20	0.00	1	2.17	29.30	0	-8	-1	-358	-2049	78	
1600	20	0.00	1	1.74	29.30	0	-7	0	-452	-249	-67	
1707	20	0.00	1	2.00	29.30	0	-8	0	-152	-352	-10	
1815	20	0.00	1	1.65	29.30	0	-8	0	-121	-197	-163	
1928	20	0.00	1	1.56	29.30	0	-8	0	-367	-662	-70	
2034	20	0.00	1	2.00	29.30	0	-8	0	-274	70	127	
2141	20	0.00	1	1.74	29.30	0	-8	0	-210	-147	84	
2249	20	0.00	1	1.65	29.30	0	-8	0	-346	-605	-160	
2355	20	0.00	1	2.52	29.30	0	-8	0	-193	-268	-139	
2463	20	0.00	1	1.48	29.30	0	-7	0	-235	-156	96	
2569	20	0.00	1	1.65	29.30	0	-8	0	-326	-138	-29	
2677	20	0.00	1	1.91	29.30	0	-8	0	-324	-514	-146	
2784	20	0.00	1	1.91	29.30	0	-8	0	-46	-321	-78	
2891	20	0.00	1	1.13	29.30	0	-8	0	-226	-408	131	
2999	20	0.00	1	1.74	29.30	0	-8	0	-437	-132	67	
3112	20	0.00	1	1.22	29.30	0	-8	0	-175	-295	-111	
3219	20	0.00	1	1.74	29.30	0	-7	0	-226	19	-75	
3325	20	0.00	1	1.13	29.30	0	-8	0	-393	53	196	
3433	20	0.00	1	1.65	29.30	0	-8	0	-375	228	166	
3539	20	0.00	1	1.30	29.30	0	-8	0	-152	-406	-128	
3647	20	0.00	1	1.48	29.30	0	-8	0	-256	-511	-208	
3754	20	0.00	1	1.39	29.30	0	-7	0	-296	-315	3	
3861	20	0.00	1	1.83	29.30	0	-8	0	-202	75	110	
3968	20	0.00	1	1.39	29.30	0	-8	0	-284	-179	-25	
4076	20	0.00	1	1.22	29.30	0	-8	0	-342	-56	-94	
4182	20	0.00	1	0.34	29.40	-1	-8	0	-220	-160	119	
4296	20	0.00	1	1.04	29.40	-1	-8	0	-236	889	233	
4402	20	0.00	1	0.78	29.30	-1	-9	0	-398	-1484	-129	
4510	20	0.00	1	0.78	29.40	0	-7	-1	244	1783	1	
4616	20	0.00	1	1.30	29.30	0	-7	0	215	4103	583	
4724	20	0.00	1	1.56	29.30	-1	-7	0	-108	4121	435	
4874	20	0.00	1	1.65	29.30	0	-7	0	-146	114	-370	
4982	20	0.00	1	1.48	29.30	0	-8	0	546	-374	-261	
5088	20	0.00	1	1.48	29.30	0	-7	0	-254	2150	781	
5195	20	0.00	1	1.65	29.30	0	-7	0	138	3532	609	
5303	20	0.00	1	1.22	29.30	-1	-7	0	-209	1624	-397	
5416	20	0.00	1	1.56	29.30	0	-8	0	63	1242	-663	
5523	20	0.00	1	1.65	29.30	0	-8	0	-378	1748	22	
5629	20	0.00	1	2.17	29.30	0	-8	0	-344	2007	433	
5737	20	0.00	1	2.70	29.30	-1	-7	0	-390	-113	-160	
5844	20	0.00	2	3.05	29.30	-1	-8	0	-110	-888	-384	
5951	20	0.00	2	2.96	29.30	0	-7	0	-175	-340	-87	
6058	20	0.00	2	3.22	29.30	0	-8	0	-463	-145	150	
6165	20	0.00	2	2.96	29.30	0	-8	0	-239	1743	-21	
6272	20	0.00	2	3.05	29.30	-1	-8	0	-391	718	-355	
6380	20	0.00	2	3.40	29.30	0	-8	0	-283	606	-332	
6486	20	0.00	2	3.22	29.30	0	-8	0	-418	3828	492	
6600	20	0.00	2	2.96	29.30	0	-7	0	125	1040	376	
6706	20	0.00	2	2.78	29.40	0	-8	0	225	466	-146	
6814	20	0.00	2	2.17	29.30	0	-7	0	-424	-955	-401	
6920	20	0.00	2	2.17	29.40	0	-8	0	-358	-1889	-238	
7028	20	0.00	2	2.35	29.40	0	-8	0	-282	142	99	
7135	20	0.00	2	1.91	29.40	0	-8	0	-142	-691	120	
7242	20	0.00	2	2.00	29.40	0	-8	0	-363	-483	-169	
7349	20	0.00	2	2.52	29.40	0	-8	0	-262	-630	-157	
7456	20	0.00	2	2.26	29.40	0	-8	0	-214	121	125	
7563	20	0.00	2	2.52	29.40	0	-8	0	-365	87	161	
7670	20	0.00	2	2.09	29.40	0	-8	0	-259	-298	-90	
7785	20	0.00	2	2.35	29.40	0	-7	0	-162	-473	-147	
7890	20	0.00	2	2.00	29.40	0	-8	0	-314	-260	14	
7998	20	0.00	2	2.00	29.40	0	-8	0	-288	-285	139	
8105	20	0.00	2	2.17	29.40	0	-8	0	-181	-271	-24	
8212	20	0.00	2	1.30	29.40	0	-7	0	-269	-523	-169	
8319	20	0.00	2	1.91	29.40	0	-7	0	-312	-157	14	
8426	20	0.00	1	1.65	29.40	0	-8	0	-175	13	139	
8533	20	0.00	1	1.56	29.40	0	-8	0	-263	-94	62	
8641	20	0.00	1	1.65	29.40	0	-7	0	-302	-446	-146	
8747	20	0.00	1	1.56	29.40	0	-8	0	-180	-435	-75	
8861	20	0.00	1	1.74	29.40	0	-7	0	-258	-38	121	
8967	20	0.00	1	1.65	29.40	0	-8	0	-353	-148	14	
9075	20	0.00	1	1.30	29.40	0	-8	0	-191	-495	-176	
9181	20	0.00	1	2.26	29.40	0	-8	0	-242	-451	-141	
9289	20	0.00	1	0.86	29.50	0	-8	0	-355	-175	76	
9395	20	0.00	1	0.78	29.50	0	-8	0	-221	-27	154	
9503	20	0.00	1	0.86	29.50	0	-7	0	-220	-355	-54	
9610	20	0.00	1	1.65	29.40	0	-8	0	-279	-596	-212	
9717	20	0.00	1	1.74	29.40	0	-8	0	-252	-356	-81	
9824	20	0.00	1	1.83	29.40	0	-8	0	-285	-163	108	
9932	20	0.00	1	1.48	29.40	0	-8	0	-286	-247	16	
10046	20	0.00	1	2.09	29.40	0	-8	0	-213	-339	-133	
10152	20	0.00	1	1.48	29.40	0	-8	0	-244	-229	-20	
10261	20	0.00	1	2.17	29.40	0	-8	0	-335	-52	111	
10369	20	0.00	1	1.48	29.40	0	-8	0	-252	-295	-14	
10477	20	0.00	1	1.22	29.40	0	-8	0	-197	-411	-92	
10585	20	0.00	1	1.91	29.40	0	-7	0	-279	-375	-53	
10693	20	0.00	1	1.39	29.40	0	-8	0	-312	-162	62	
10801	20	0.00	1	1.48	29.40	0	-7	0	-228	-301	33	
10910	20	0.00	1	2.09	29.40	0	-8	0	-268	-314	-121	
11018	20	0.00	1	1.74	29.50	0	-8	0	-274	-289	-100	
11170	20	0.00	1	2.00	29.40	0	-8	0	-152	-110	99	
11285	20	0.00	1	2.26	29.40	0	-7	0	-324	-269	7	
11391	20	0.00	1	2.17	29.40	0	-8	0	-234	-478	-134	
11500	20	0.00	1	2.09	29.50	0	-8	0	-200	-193	-10	
11608	20	0.00	1	1.39	29.50	0	-7	0	-339	-153	119	
11716	20	0.00	1	1.83	29.50	0	-8	0	-293	-235	27	
11824	20	0.00	1	1.65	29.50	0	-7	0	-165	-422	-122	
11932	20	0.00	1	1.65	29.50	0	-7	0	-261	-287	-35	
12040	20	0.00	1	2.17	29.50	0	-8	0	-303	-53	120	
12149	20	0.00	1	2.17	29.50	0	-8	0	-213	-183	23	
12256	20	0.00	1	1.30	29.50	0	-8	0	-245	-448	-126	
12371	20	0.00	1	2.09	29.50	0	-7	0	-235	-313	-35	
12479	20	0.00	1	1.83	29.50	0	-8	0	-285	-219	62	
12587	20	0.00	1	1.83	29.50	0	-7	0	-240	-203	1	
12695	20	0.00	1	2.09	29.50	0	-8	0	-245	-309	-82	
12803	20	0.00	1	1.74	29.50	0	-7	0	-267	-268	-34	
12912	20	0.00	1	2.00	29.50	0	-7	0	-278	-109	65	
13019	20	0.00	1	1.56	29.50	0	-8	0	-246	-129	50	
13128	20	0.00	1	1.56	29.50	0	-8	0	-266	-410	-92	
13236	20	0.00	1	1.83	29.50	0	-8	0	-235	-517	-128	
13344	20	0.00	1	1.91	29.50	0	-8	0	-203	-316	14	
13453	20	0.00	1	1.39	29.50	0	-8	0	-313	-205	28	
13567	20	0.00	1	1.22	29.50	0	-8	0	-289	-232	-24	
13675	20	0.00	1	2.09	29.50	0	-8	0	-232	-404	-60	
13782	20	0.00	1	1.91	29.50	0	-8	0	-300	-233	36	
13891	20	0.00	1	1.65	29.50	0	-8	0	-254	-200	46	
13999	20	0.00	1	1.74	29.50	0	-8	0	-227	-293	-25	
14107	20	0.00	1	1.56	29.50	0	-8	0	-273	-391	-93	
14215	20	0.00	1	1.74	29.50	0	-8	0	-301	-288	-26	
14323	20	0.00	1	1.74	29.50	0	-7	0	-249	-97	48	
14431	20	0.00	1	1.48	29.50	0	-8	0	-301	-132	20	
14540	20	0.00	1	1.65	29.50	0	-8	0	-288	-294	-48	
14655	20	0.00	1	2.00	29.50	0	-7	0	-242	-281	-13	
14762	20	0.00	1	1.83	29.50	0	-8	0	-296	-153	25	
14870	20	0.00	1	1.91	29.50	0	-8	0	-290	-261	-1	
14978	20	0.00	1	1.56	29.50	0	-8	0	-218	-274	-47	
15086	20	0.00	1	1.91	29.50	0	-8	0	-236	-314	-11	
15194	20	0.00	1	1.83	29.50	0	-7	0	-343	-212	26	
15303	20	0.00	1	1.56	29.50	0	-8	0	-317	-238	46	
15411	20	0.00	1	2.09	29.50	0	-8	0	-222	-264	-40	
15519	20	0.00	1	1.65	29.50	0	-8	0	-265	-414	-93	
15627	20	0.00	1	1.65	29.50	0	-7	0	-298	-270	-18	
15735	20	0.00	1	1.39	29.60	0	-8	0	-234	-188	24	
15850	20	0.00	1	1.74	29.50	0	-7	0	-306	-399	-25	
15957	20	0.00	1	1.56	29.60	0	-8	0	-253	-217	-43	
16066	20	0.00	1	1.91	29.60	0	-8	0	-210	-192	-65	
16173	20	0.00	1	1.65	29.60	0	-8	0	-308	-416	-22	
16282	20	0.00	1	1.65	29.60	0	-8	0	-257	-302	-68	
16389	20	0.00	1	1.56	29.60	0	-8	0	-224	-342	-58	
16498	20	0.00	1	1.91	29.60	0	-8	0	-292	-190	14	
16606	20	0.00	1	1.30	29.60	0	-8	0	-253	-99	-17	
16714	20	0.00	1	2.09	29.60	0	-7	0	-242	-190	-40	
16823	20	0.00	1	1.91	29.60	0	-7	0	-297	-323	-7	
16937	20	0.00	1	2.00	29.60	0	-8	0	-242	-163	-13	
17045	20	0.00	1	1.83	29.60	0	-8	0	-243	-308	27	
17152	20	0.00	1	1.74	29.60	0	-8	0	-254	-427	-51	
17261	20	0.00	1	1.65	29.60	0	-8	0	-250	-267	-23	
17413	20	0.00	1	1.48	29.60	0	-7	0	-232	-194	54	
17521	20	0.00	1	1.56	29.60	0	-7	0	-256	-304	-23	
17629	20	0.00	1	1.30	29.60	0	-7	0	-260	-483	-131	
17737	20	0.00	1	1.56	29.60	0	-8	0	-239	-263	-49	
17845	20	0.00	1	1.65	29.60	0	-8	0	-299	-176	74	
17953	20	0.00	1	1.56	29.60	0	-8	0	-299	-202	43	
18062	20	0.00	1	1.56	29.60	0	-8	0	-267	-244	-35	
18176	20	0.00	1	1.65	29.60	0	-7	0	-279	-332	-55	
18284	20	0.00	1	1.56	29.60	0	-8	0	-238	-230	-7	
18391	20	0.00	1	1.65	29.60	0	-8	0	-245	-262	21	
18500	20	0.00	1	1.74	29.60	0	-8	0	-288	-319	-14	
18607	20	0.00	1	1.30	29.60	0	-7	0	-221	-321	-77	
18716	20	0.00	1	1.74	29.60	0	-8	0	-267	-420	-27	
18824	20	0.00	1	1.83	29.60	0	-8	0	-300	-54	100	
18932	20	0.00	1	1.91	29.60	0	-7	0	-235	-102	5	
19040	20	0.00	1	1.83	29.60	0	-8	0	-281	-370	-69	
19149	20	0.00	1	2.09	29.60	0	-8	0	-238	-390	-45	
19264	20	0.00	1	2.00	29.60	0	-8	0	-205	-372	-28	
19371	20	0.00	1	1.65	29.60	0	-8	0	-329	-253	34	
19479	20	0.00	1	2.09	29.60	0	-8	0	-227	-151	18	
19587	20	0.00	1	2.00	29.60	0	-8	0	-284	-243	-28	
19695	20	0.00	1	2.17	29.60	0	-8	0	-334	-343	38	
19804	20	0.00	2	2.26	29.60	0	-8	0	-237	87	100	
19912	20	0.00	1	1.30	29.60	0	-8	0	-371	-282	-10	
20019	20	0.00	1	2.00	29.60	0	-8	-1	-238	-512	-115	
20128	20	0.00	1	1.65	29.60	0	-7	0	-77	-185	-74	
20235	20	0.00	1	1.74	29.60	0	-7	0	-518	-372	40	
20344	20	0.00	1	2.09	29.60	0	-8	-1	-380	-87	69	
20459	20	0.00	1	1.91	29.60	0	-8	0	-172	-154	28	
20566	20	0.00	1	1.83	29.60	0	-8	0	-377	-469	-60	
20675	20	0.00	1	1.83	29.70	0	-8	0	-198	-146	-23	
20782	20	0.00	1	2.35	29.70	0	-7	0	-234	-175	-42	
20891	20	0.00	1	2.00	29.60	0	-8	0	-338	-367	-12	
20999	20	0.00	2	2.17	29.70	0	-8	-1	-178	-243	-1	
21107	20	0.00	2	2.26	29.70	0	-8	0	-203	-557	-42	
21215	20	0.00	2	1.91	29.60	0	-8	0	-325	-340	-76	
21323	20	0.00	1	1.48	29.70	0	-8	0	-226	-128	40	
21432	20	0.00	1	2.17	29.70	0	-7	0	-263	-331	81	
21546	20	0.00	1	1.83	29.70	0	-7	0	-256	-447	-92	
21654	20	0.00	1	1.39	29.70	0	-8	0	-216	-279	-140	
21762	20	0.00	1	1.91	29.70	0	-8	0	-333	-98	172	
21870	20	0.00	1	1.56	29.70	0	-8	0	-337	-119	184	
21978	20	0.00	1	2.26	29.70	0	-8	0	-212	-265	-118	
22086	20	0.00	1	2.17	29.70	0	-7	0	-343	-569	-168	
22194	20	0.00	1	1.74	29.70	0	-8	0	-337	-338	-74	
22303	20	0.00	1	1.48	29.70	0	-8	0	-199	-146	103	
22410	20	0.00	1	2.52	29.70	0	-7	0	-347	352	169	
22519	20	0.00	1	2.00	29.70	0	-7	0	-204	-652	-21	
22628	20	0.00	2	2.44	29.70	0	-8	0	-259	-59	-103	
22742	20	0.00	1	1.74	29.70	0	-8	0	-421	-172	78	
22849	20	0.00	2	2.09	29.70	0	-8	0	-258	-341	56	
22957	20	0.00	1	1.74	29.70	0	-8	0	-65	-583	-116	
23066	20	0.00	1	1.91	29.70	0	-7	0	-239	-380	-161	
23173	20	0.00	1	1.65	29.70	0	-8	0	-456	-42	31	
23282	20	0.00	1	2.44	29.70	0	-8	-1	-77	6	84	
23389	20	0.00	1	1.65	29.70	0	-7	0	-90	301	73	
23498	20	0.00	2	2.61	29.70	0	-7	0	-358	-253	-7	
23607	20	0.00	2	2.00	29.70	0	-7	0	-516	-78	-3	
23758	20	0.00	2	2.52	29.70	0	-8	0	-283	-257	86	
23866	20	0.00	2	2.44	29.70	0	-8	0	-326	-139	-11	
23980	20	0.00	2	2.17	29.70	0	-8	0	-223	10	-52	
24088	20	0.00	2	1.91	29.70	0	-7	0	-406	-292	128	
24196	20	0.00	2	2.09	29.70	0	-8	0	-207	340	176	
24304	20	0.00	2	1.65	29.70	-1	-7	0	-369	-329	-84	
24412	20	0.00	2	1.91	29.70	0	-8	0	-167	-386	-139	
24520	20	0.00	2	2.00	29.70	0	-7	0	-201	-439	-87	
24628	20	0.00	2	2.09	29.70	0	-7	0	-420	-645	-3	
24736	20	0.00	1	1.48	29.70	0	-8	0	-187	-210	-21	
24845	20	0.00	1	1.83	29.70	0	-7	0	-203	-338	-93	
24953	20	0.00	1	1.83	29.70	0	-7	0	-411	-167	44	
25068	20	0.00	1	1.83	29.70	0	-7	0	-226	-17	156	
25175	20	0.00	1	1.83	29.70	0	-8	0	-203	-289	-29	
25283	20	0.00	1	1.65	29.70	0	-8	0	-278	-464	-99	
25391	20	0.00	1	1.74	29.70	0	-7	0	-221	-270	-2	
25499	20	0.00	1	1.48	29.80	0	-8	0	-345	15	164	
25607	20	0.00	1	1.48	29.70	0	-8	0	-220	-360	-11	
25716	20	0.00	1	1.65	29.80	0	-7	0	-279	-583	-169	
25823	20	0.00	1	1.74	29.80	0	-7	0	-273	-386	-14	
25932	20	0.00	1	1.83	29.80	0	-7	0	-245	275	108	
26041	20	0.00	1	2.26	29.80	0	-7	0	-347	-64	27	
26148	20	0.00	1	1.48	29.80	-1	-7	0	-149	-916	-171	
26263	20	0.00	1	2.09	29.80	0	-8	0	-161	-681	-188	
26371	20	0.00	1	1.83	29.80	0	-7	0	-339	-245	91	
26479	20	0.00	1	2.17	29.80	0	-8	-1	-319	186	127	
26586	20	0.00	1	1.91	29.80	0	-8	0	-202	-209	-70	
26695	20	0.00	1	2.09	29.80	0	-7	0	-319	-562	-216	
26803	20	0.00	1	1.48	29.80	0	-8	0	-373	-424	-69	
26911	20	0.00	1	2.52	29.80	0	-8	0	-138	425	190	
27019	20	0.00	2	2.52	29.80	-1	-8	0	-259	112	99	
27127	20	0.00	2	2.78	29.80	0	-8	0	-348	-585	-228	
27236	20	0.00	2	2.17	29.80	0	-7	0	-164	-483	-180	
27350	20	0.00	2	1.56	29.80	0	-8	0	-244	-153	117	
27458	20	0.00	1	1.56	29.80	0	-7	0	-328	-389	5	
27566	20	0.00	2	2.26	29.80	0	-8	0	-194	-423	-167	
27674	20	0.00	2	2.44	29.80	0	-8	0	-191	-409	-144	
27782	20	0.00	2	2.09	29.80	0	-7	0	-361	-258	106	
27891	20	0.00	2	1.91	29.80	0	-8	0	-275	-128	143	
27998	20	0.00	2	1.91	29.80	0	-8	0	-257	-389	-110	
28107	20	0.00	1	1.56	29.80	0	-8	0	-229	-563	-254	
28215	20	0.00	2	2.52	29.80	0	-8	0	-211	-44	37	
28323	20	0.00	2	1.83	29.80	0	-8	0	-275	62	235	
28438	20	0.00	1	1.74	29.80	0	-8	0	-318	-532	-26	
28545	20	0.00	1	2.09	29.80	0	-8	0	-168	-786	-281	
28653	20	0.00	1	2.00	29.80	0	-7	0	-259	-442	-119	
28761	20	0.00	1	2.00	29.80	0	-8	0	-332	-90	142	
28870	20	0.00	1	1.74	29.80	0	-8	0	-260	23	177	
28977	20	0.00	1	1.83	29.80	0	-8	0	-259	-184	-36	
29086	20	0.00	1	1.91	29.80	0	-8	0	-307	-94	-87	
29194	20	0.00	1	1.74	29.80	0	-8	0	-188	110	119	
29302	20	0.00	1	1.65	29.80	-1	-8	0	-316	-359	61	
29411	20	0.00	1	2.26	29.80	0	-8	0	-281	-805	-205	
29518	20	0.00	2	2.35	29.80	0	-7	0	-106	-495	-196	
29634	20	0.00	2	2.35	29.80	0	-7	0	-334	-324	75	
29740	20	0.00	2	2.17	29.80	0	-7	0	-375	-49	100	
29849	20	0.00	2	1.91	29.80	0	-8	0	-174	-259	-84	
29957	20	0.00	2	1.83	29.80	0	-7	0	-264	-624	-127	
30109	20	0.00	2	2.35	29.80	0	-7	0	-284	190	140	
30216	20	0.00	1	1.56	29.80	0	-7	0	-379	-263	12	
30325	20	0.00	2	2.35	29.80	0	-8	0	-145	-579	-155	
30432	20	0.00	2	1.91	29.80	0	-7	0	-215	-484	-129	
30541	20	0.00	2	2.17	29.80	0	-7	0	-353	-578	21	
30650	20	0.00	1	1.48	29.80	0	-7	0	-234	-221	35	
30764	20	0.00	1	2.00	29.80	0	-7	0	-282	-390	-42	
30872	20	0.00	1	2.00	29.80	0	-8	0	-282	-76	-44	
30980	20	0.00	1	1.91	29.80	0	-8	0	-309	80	93	
31088	20	0.00	2	2.26	29.80	0	-8	0	-293	218	137	
31196	20	0.00	2	2.09	29.80	0	-8	0	-312	-253	-107	
31305	20	0.00	2	2.09	29.80	0	-7	0	-217	-552	-134	
31412	20	0.00	2	2.00	29.80	0	-8	0	-245	-251	90	
31521	20	0.00	2	2.00	29.80	0	-8	0	-279	21	109	
31629	20	0.00	2	2.00	29.80	0	-7	0	-226	-222	-27	
31737	20	0.00	1	1.48	29.80	0	-7	0	-233	-398	-185	
31846	20	0.00	1	2.26	29.80	0	-8	0	-326	-132	35	
31960	20	0.00	1	1.83	29.80	0	-8	0	-239	90	175	
32068	20	0.00	1	2.09	29.80	0	-8	0	-303	-291	-23	
32175	20	0.00	1	2.00	29.80	0	-7	0	-275	-558	-203	
32284	20	0.00	1	1.91	29.80	0	-8	0	-146	-468	-93	
32391	20	0.00	2	2.35	29.80	0	-7	0	-343	106	124	
32500	20	0.00	2	2.44	29.80	0	-8	0	-288	-396	28	
32608	20	0.00	2	2.00	29.80	0	-7	0	-171	-205	-204	
32716	20	0.00	2	1.91	29.80	0	-7	0	-244	-479	-108	
32825	20	0.00	2	2.00	29.80	0	-7	0	-367	-87	108	
32933	20	0.00	2	2.17	29.80	0	-8	0	-251	-320	36	
33041	20	0.00	2	1.91	29.80	0	-7	0	-237	-316	-143	
33155	20	0.00	2	2.00	29.80	0	-8	0	-314	-506	-56	
33263	20	0.00	2	2.09	29.80	0	-8	0	-283	-63	127	
33371	20	0.00	1	1.74	29.80	0	-7	0	-271	-125	96	
33479	20	0.00	1	2.00	29.80	0	-8	0	-312	-498	-86	
33587	20	0.00	2	2.44	29.80	0	-8	0	-196	-260	-89	
33696	20	0.00	2	1.74	29.80	0	-7	0	-270	-183	23	
33803	20	0.00	2	2.17	29.80	0	-8	0	-278	-257	90	
33912	20	0.00	2	1.91	29.80	0	-8	0	-221	-261	-27	
34021	20	0.00	2	2.09	29.80	0	-8	0	-238	-508	-136	
34128	20	0.00	2	2.09	29.80	0	-8	0	-250	-394	-59	
34243	20	0.00	2	2.35	29.80	0	-7	0	-263	-231	36	
34350	20	0.00	2	2.17	29.80	0	-8	0	-293	-419	-20	
34459	20	0.00	2	2.09	29.80	0	-8	0	-212	-135	3	
34566	20	0.00	2	1.56	29.80	0	-7	0	-277	-128	24	
34675	20	0.00	1	1.91	29.80	0	-8	0	-288	-242	48	
34782	20	0.00	1	1.83	29.80	0	-7	0	-228	-289	10	
34891	20	0.00	1	2.17	29.80	0	-8	0	-236	-447	-57	
35000	20	0.00	2	2.35	29.80	0	-8	0	-291	-420	-39	
35107	20	0.00	2	2.26	29.80	0	-7	0	-274	-165	19	
35216	20	0.00	2	1.65	29.80	0	-7	0	-249	-224	45	
35324	20	0.00	2	2.09	29.80	0	-7	0	-274	-290	-14	
35439	20	0.00	1	1.56	29.80	0	-8	0	-257	-260	-20	
35546	20	0.00	1	2.17	29.80	0	-7	0	-254	-250	33	
35654	20	0.00	1	1.91	29.80	0	-8	0	-300	-373	-28	
35762	20	0.00	1	2.00	29.80	0	-8	0	-300	-334	-48	
35870	20	0.00	1	2.00	29.80	0	-8	0	-222	-314	-24	
35978	20	0.00	1	1.74	29.80	0	-8	0	-281	-166	21	
36087	20	0.00	1	1.56	29.80	0	-7	0	-309	-217	-19	
36195	20	0.00	1	1.83	29.80	0	-8	0	-222	-142	-1	
36303	20	0.00	1	1.74	29.80	0	-7	0	-243	-90	97	
36456	20	0.00	1	2.09	29.80	0	-7	0	-207	-189	26	
36569	20	0.00	1	2.09	29.80	0	-8	0	-209	-438	-106	
36677	20	0.00	1	2.26	29.80	0	-8	0	-285	-577	-108	
36784	20	0.00	1	2.00	29.80	0	-7	0	-246	-67	49	
36893	20	0.00	2	2.44	29.80	0	-7	0	-244	-95	119	
37001	20	0.00	2	2.52	29.80	0	-7	0	-355	-120	12	
37109	20	0.00	2	1.83	29.80	0	-8	0	-190	-450	-155	
37218	20	0.00	2	2.61	29.80	0	-7	0	-173	-577	-155	
37325	20	0.00	2	2.00	29.80	0	-8	0	-289	-477	-87	
37434	20	0.00	2	2.09	29.80	0	-7	0	-383	-111	85	
37542	20	0.00	2	2.78	29.80	0	-8	0	-216	-251	16	
37650	20	0.00	2	2.52	29.80	0	-8	0	-187	-435	-115	
37764	20	0.00	2	2.09	29.80	0	-8	0	-276	-207	-28	
37872	20	0.00	2	3.05	29.80	0	-8	0	-232	-74	117	
37980	20	0.00	2	1.83	29.80	0	-8	0	-258	-29	63	
38088	20	0.00	2	1.83	29.80	0	-7	0	-269	-374	-39	
38196	20	0.00	2	2.00	29.80	0	-7	0	-301	-471	-39	
38305	20	0.00	2	2.00	29.80	0	-8	0	-242	-440	-25	
38413	20	0.00	2	2.17	29.80	0	-8	0	-281	-216	-31	
38521	20	0.00	2	2.35	29.80	0	-8	0	-270	-293	-5	
38629	20	0.00	2	2.00	29.80	0	-7	0	-235	-112	13	
38737	20	0.00	2	1.91	29.80	0	-7	0	-271	110	24	
38853	20	0.00	2	2.35	29.90	0	-8	0	-234	-214	-12	
38960	20	0.00	2	2.61	29.80	0	-8	0	-236	-533	-71	
39068	20	0.00	2	2.61	29.80	0	-8	0	-254	-306	-56	
39176	20	0.00	2	2.44	29.80	0	-8	0	-218	-320	-12	
39284	20	0.00	2	1.91	29.90	0	-8	0	-297	-175	-13	
39392	20	0.00	2	2.87	29.80	0	-8	0	-243	-280	-28	
39501	20	0.00	2	2.44	29.80	0	-8	0	-216	-243	-43	
39609	20	0.00	2	1.83	29.80	0	-8	0	-295	-306	-7	
39717	20	0.00	2	2.00	29.80	0	-8	0	-229	-266	-56	
39826	20	0.00	2	1.91	29.80	0	-8	0	-188	-360	-98	
39933	20	0.00	2	1.74	29.90	0	-8	0	-308	-459	-50	
40048	20	0.00	2	2.52	29.90	0	-8	0	-243	-271	35	
40155	20	0.00	2	2.17	29.80	0	-8	0	-231	-137	-37	
40264	20	0.00	2	2.35	29.80	0	-7	0	-268	-220	-6	
40371	20	0.00	2	2.44	29.80	0	-8	0	-315	-104	45	
40480	20	0.00	2	1.83	29.90	0	-8	0	-196	-134	39	
40589	20	0.00	2	2.35	29.90	0	-8	0	-269	-258	-28	
40696	20	0.00	2	1.74	29.80	0	-8	0	-282	-458	-87	
40805	20	0.00	2	2.44	29.90	0	-8	0	-241	-250	-16	
40912	20	0.00	2	2.35	29.90	0	-8	0	-232	52	151	
41022	20	0.00	2	2.26	29.90	0	-8	0	-314	-44	55	
41152	20	0.00	2	2.35	29.90	0	-8	0	-242	-488	-204	
41258	20	0.00	2	2.09	29.90	0	-8	0	-224	-541	-102	
41367	20	0.00	2	2.09	29.90	0	-8	0	-308	-162	111	
41475	20	0.00	2	2.26	29.80	0	-8	0	-226	-281	73	
41583	20	0.00	2	2.26	29.80	0	-8	0	-222	-538	-218	
41691	20	0.00	2	2.44	29.90	0	-8	0	-252	-549	-148	
41800	20	0.00	2	2.44	29.90	0	-8	0	-253	18	153	
41907	20	0.00	2	2.52	29.90	0	-8	0	-315	-60	188	
42016	20	0.00	2	2.00	29.90	0	-7	0	-260	-476	-138	
42123	20	0.00	2	2.17	29.90	0	-8	0	-182	-716	-253	
42232	20	0.00	2	1.91	29.90	0	-7	0	-405	-355	208	
42347	20	0.00	2	2.44	29.90	0	-7	0	-217	554	267	
42454	20	0.00	2	2.52	29.90	0	-7	0	-325	-541	-173	
42607	20	0.00	2	2.17	29.90	0	-7	0	-360	-684	-220	
42713	20	0.00	2	2.78	29.90	0	-8	0	-235	-304	201	
42822	20	0.00	2	2.35	29.90	0	-8	0	-241	-103	84	
42930	20	0.00	2	2.78	29.90	0	-8	0	-189	-762	-302	
43038	20	0.00	2	2.70	29.90	0	-8	0	-264	-610	-192	
43147	20	0.00	2	2.26	29.90	0	-8	0	-380	449	344	
43254	20	0.00	2	2.35	29.90	-1	-7	0	-255	565	225	
43363	20	0.00	2	2.70	29.90	-1	-8	0	-261	-357	-146	
43477	20	0.00	2	2.17	29.90	0	-8	0	-143	-744	-252	
43585	20	0.00	2	2.26	29.90	0	-7	0	-232	-227	85	
43693	20	0.00	2	2.78	29.90	0	-8	0	-305	-38	129	
43801	20	0.00	2	2.70	29.90	0	-7	0	-307	-164	11	
43909	20	0.00	2	2.26	29.90	0	-7	0	-226	36	-147	
44018	20	0.00	2	2.61	29.90	0	-7	0	-267	-319	-50	
44125	20	0.00	2	2.00	29.90	0	-7	0	-334	101	84	
44234	20	0.00	2	1.83	29.90	0	-8	0	-205	-329	8	
44341	20	0.00	2	2.09	29.90	0	-7	0	-250	-599	-173	
44450	20	0.00	2	1.91	29.90	0	-8	0	-235	-628	-95	
44559	20	0.00	2	2.44	29.90	0	-7	0	-297	-71	80	
44673	20	0.00	2	2.78	29.90	0	-8	0	-188	-174	108	
44781	20	0.00	2	2.52	29.90	0	-7	0	-313	-204	-105	
44888	20	0.00	2	2.26	29.90	0	-8	0	-270	-98	-97	
44997	20	0.00	2	2.00	29.90	0	-8	0	-231	-138	62	
45104	20	0.00	2	2.70	29.90	0	-8	0	-271	-217	70	
45213	20	0.00	2	2.09	29.90	0	-7	0	-250	-705	-37	
45321	20	0.00	2	2.35	29.90	0	-8	0	-234	-682	-156	
45429	20	0.00	2	2.17	29.90	0	-8	0	-367	-471	-65	
45538	20	0.00	2	2.17	29.90	0	-8	0	-72	-1	46	
45645	20	0.00	2	2.35	29.90	0	-7	0	-263	-40	80	
45761	20	0.00	2	2.44	29.90	0	-7	0	-462	-309	-123	
45867	20	0.00	2	2.44	29.90	0	-8	0	-132	-703	-18	
45976	20	0.00	2	2.44	29.90	0	-7	0	-194	-31	66	
46084	20	0.00	2	2.17	29.90	0	-7	0	-448	-535	-20	
46192	20	0.00	2	2.52	29.90	0	-8	0	-152	-294	-102	
46300	20	0.00	2	2.17	29.90	0	-7	0	-260	-268	-53	
46409	20	0.00	2	2.35	29.90	0	-7	0	-327	-446	-20	
46516	20	0.00	2	2.00	29.90	0	-8	0	-178	-93	82	
46625	20	0.00	2	2.17	29.90	-1	-7	0	-282	-332	-24	
46733	20	0.00	2	2.61	29.90	0	-8	0	-295	-701	-106	
46841	20	0.00	2	2.17	29.90	0	-8	0	-218	-172	-72	
46956	20	0.00	2	2.17	29.90	0	-8	0	-338	-215	82	
47063	20	0.00	2	1.91	29.90	0	-8	0	-308	-292	52	
47172	20	0.00	2	2.35	29.90	0	-8	0	-173	-191	-66	
47279	20	0.00	2	2.17	29.90	0	-7	0	-350	-256	-66	
47388	20	0.00	2	2.26	29.90	0	-8	0	-156	-210	49	
47496	20	0.00	2	2.61	29.90	0	-7	0	-268	-326	-20	
47604	20	0.00	2	2.44	29.90	0	-8	0	-323	-476	-64	
47712	20	0.00	2	2.00	29.90	0	-8	0	-226	-245	-21	
47820	20	0.00	2	1.83	29.90	0	-7	0	-280	-206	8	
47929	20	0.00	2	1.74	29.90	0	-7	0	-303	-295	12	
48043	20	0.00	2	2.96	29.90	0	-8	0	-183	-178	-64	
48151	20	0.00	2	2.09	29.90	0	-7	0	-292	-400	-82	
48258	20	0.00	2	2.35	29.90	0	-8	0	-289	-193	11	
48367	20	0.00	2	1.74	29.90	0	-8	0	-150	-74	58	
48475	20	0.00	2	2.09	29.90	0	-7	0	-259	-253	-67	
48583	20	0.00	2	2.26	29.90	0	-8	0	-236	-438	-111	
48691	20	0.00	2	2.26	29.90	0	-8	0	-249	-332	-31	
48800	20	0.00	2	2.17	29.90	0	-7	0	-326	-295	43	
48952	20	0.00	2	2.52	29.90	0	-8	0	-283	-258	-25	
49059	20	0.00	2	2.61	29.90	0	-8	0	-182	-434	-46	
49167	20	0.00	2	2.09	29.90	0	-8	0	-357	-246	52	
49281	20	0.00	2	1.74	29.90	0	-8	0	-202	-165	-15	
49389	20	0.00	2	2.09	29.90	0	-8	0	-276	-440	-90	
49497	20	0.00	2	2.09	29.90	0	-8	0	-347	-525	-25	
49605	20	0.00	2	1.83	29.90	0	-8	0	-231	-27	60	
49714	20	0.00	2	2.00	29.90	0	-8	0	-280	-261	50	
49822	20	0.00	2	1.91	29.90	0	-8	0	-311	-441	-99	
49929	20	0.00	2	2.09	29.90	0	-7	0	-225	-225	-69	
50038	20	0.00	2	2.09	29.90	0	-8	0	-271	-136	81	
50146	20	0.00	2	2.09	29.90	0	-8	0	-349	-200	59	
50254	20	0.00	2	1.91	29.90	0	-8	0	-265	-294	-91	
50369	20	0.00	1	1.83	29.90	0	-8	0	-275	-515	-101	
50476	20	0.00	1	2.00	29.90	0	-8	0	-294	-335	-7	
50585	20	0.00	1	1.74	29.90	0	-8	0	-248	-206	34	
50692	20	0.00	1	1.74	30.00	0	-7	0	-252	-400	-83	
50801	20	0.00	1	2.17	30.00	0	-8	0	-287	-259	-58	
50909	20	0.00	1	1.83	30.00	0	-8	0	-237	-38	91	
51017	20	0.00	1	1.83	30.00	0	-8	0	-281	-156	70	
51125	20	0.00	1	1.91	30.00	0	-8	0	-269	-382	-88	
51233	20	0.00	1	2.35	30.00	0	-8	0	-180	-505	-112	
51342	20	0.00	2	2.17	30.00	0	-8	0	-278	-389	-4	
51450	20	0.00	2	1.91	30.00	0	-8	0	-298	-230	99	
51565	20	0.00	1	1.83	30.00	0	-8	0	-248	-226	-34	
51671	20	0.00	1	1.56	30.00	0	-8	0	-278	-376	-88	
51780	20	0.00	1	2.09	30.00	0	-8	0	-219	-104	-7	
51888	20	0.00	1	1.83	30.00	0	-7	0	-281	-83	97	
51996	20	0.00	2	2.52	30.00	0	-8	0	-301	-279	-35	
52104	20	0.00	2	2.17	30.00	0	-8	0	-183	-471	-94	
52213	20	0.00	1	1.30	30.00	0	-8	0	-255	-343	-41	
52320	20	0.00	1	2.17	30.00	0	-8	0	-288	-300	8	
52429	20	0.00	1	2.00	30.00	0	-8	0	-242	-205	13	
52537	20	0.00	2	2.61	30.00	0	-8	0	-252	-261	-31	
52645	20	0.00	1	1.56	30.00	0	-8	0	-290	-234	-12	
52760	20	0.00	1	1.83	30.00	0	-8	0	-268	-237	38	
52867	20	0.00	1	1.91	30.00	0	-8	0	-255	-281	-2	
52976	20	0.00	1	2.17	30.00	0	-8	0	-235	-402	-59	
53083	20	0.00	1	1.91	30.00	0	-8	0	-212	-423	-96	
53192	20	0.00	1	2.00	30.00	0	-7	0	-231	-276	27	
53299	20	0.00	2	2.17	30.00	0	-8	0	-295	-245	35	
53408	20	0.00	2	2.17	30.00	0	-8	0	-193	-394	-25	
53517	20	0.00	2	1.91	30.00	0	-7	0	-217	-164	-34	
53624	20	0.00	2	2.26	30.00	0	-8	0	-298	-335	4	
53733	20	0.00	2	2.26	30.00	0	-8	0	-306	-225	8	
53847	20	0.00	2	2.00	30.00	0	-7	0	-226	-279	2	
53955	20	0.00	2	2.35	30.00	0	-7	0	-321	-269	0	
54063	20	0.00	2	2.35	30.00	0	-7	0	-245	-204	-12	
54171	20	0.00	2	1.74	30.00	0	-8	0	-216	-206	24	
54279	20	0.00	1	1.56	30.00	0	-8	0	-270	-203	33	
54387	20	0.00	1	1.91	30.00	0	-7	0	-280	-268	-8	
54495	20	0.00	1	1.74	30.00	0	-8	0	-243	-351	-45	
54604	20	0.00	1	1.83	30.00	0	-8	0	-292	-194	9	
54712	20	0.00	1	1.74	30.00	0	-8	0	-303	-129	-28	
54820	20	0.00	1	1.91	30.00	0	-8	0	-258	-302	-53	
54928	20	0.00	1	1.74	30.00	0	-8	0	-231	-353	-30	
55043	20	0.00	1	2.35	30.00	0	-8	0	-271	-273	13	
55150	20	0.00	2	2.26	30.00	0	-8	0	-281	-265	-48	
55302	20	0.00	1	1.83	30.00	0	-8	0	-254	-374	-78	
55410	20	0.00	2	2.52	30.00	0	-8	0	-236	-289	-38	
55517	20	0.00	2	2.70	30.00	0	-8	0	-276	-198	50	
55626	20	0.00	2	2.09	30.00	0	-8	0	-222	-324	13	
55735	20	0.00	2	2.35	30.00	0	-7	0	-247	-466	-125	
55842	20	0.00	2	1.56	30.00	0	-8	0	-299	-452	-49	
55951	20	0.00	2	2.61	30.00	0	-8	0	-249	-60	49	
56059	20	0.00	2	2.35	30.00	0	-8	0	-274	-242	48	
56174	20	0.00	2	1.74	30.00	0	-8	0	-282	-290	-66	
56281	20	0.00	1	1.48	30.00	0	-7	0	-235	-261	-60	
56389	20	0.00	1	2.00	30.00	0	-8	0	-282	-127	41	
56497	20	0.00	1	2.00	30.00	0	-8	0	-263	-158	98	
56605	20	0.00	1	2.00	30.00	0	-8	0	-247	-341	-90	
56713	20	0.00	1	2.00	30.00	0	-8	0	-242	-474	-101	
56822	20	0.00	1	1.65	30.10	0	-8	0	-260	-256	17	
56930	20	0.00	1	1.83	30.00	0	-8	0	-248	-176	103	
57038	20	0.00	1	2.00	30.00	0	-8	0	-267	-373	-31	
57147	20	0.00	1	2.09	30.10	0	-8	0	-269	-402	-107	
57254	20	0.00	2	2.35	30.10	0	-8	0	-282	-205	-10	
57369	20	0.00	2	2.17	30.10	0	-8	0	-269	-187	72	
57476	20	0.00	2	2.26	30.10	0	-8	0	-288	-189	10	
57585	20	0.00	2	2.35	30.10	0	-8	0	-256	-398	-57	
57692	20	0.00	2	1.65	30.10	0	-7	0	-152	-345	-56	
57802	20	0.00	2	2.44	30.10	0	-7	0	-307	-160	65	
57909	20	0.00	2	1.74	30.10	0	-7	0	-320	-167	58	
58017	20	0.00	2	2.00	30.10	0	-8	0	-212	-333	-74	
58126	20	0.00	2	2.00	30.10	0	-8	0	-232	-292	-90	
58233	20	0.00	2	2.09	30.10	0	-8	0	-307	-322	5	
58342	20	0.00	2	2.35	30.10	0	-8	0	-267	-172	46	
58456	20	0.00	2	2.26	30.10	0	-7	0	-209	-203	-53	
58564	20	0.00	2	2.52	30.10	0	-7	0	-373	-400	-40	
58672	20	0.00	2	2.26	30.10	0	-8	0	-254	-257	29	
58780	20	0.00	2	2.00	30.10	0	-8	0	-192	-263	20	
58888	20	0.00	2	2.78	30.10	0	-8	0	-336	-376	-70	
58996	20	0.00	2	2.26	30.10	0	-8	0	-235	-317	11	
59104	20	0.00	2	2.17	30.10	0	-7	0	-234	-103	61	
59213	20	0.00	2	2.44	30.10	0	-7	0	-308	-227	-4	
59321	20	0.00	2	2.00	30.10	0	-8	0	-251	-419	-72	
59429	20	0.00	2	1.91	30.10	0	-8	0	-234	-283	-28	
59538	20	0.00	2	2.09	30.10	0	-8	0	-317	-310	-4	
59652	20	0.00	2	2.26	30.10	0	-8	0	-257	-338	-2	
59759	20	0.00	2	2.35	30.10	0	-8	0	-243	-239	-54	
59867	20	0.00	2	2.00	30.10	0	-8	0	-321	-155	6	
59976	20	0.00	2	2.17	30.10	0	-8	0	-247	-146	29	
60083	20	0.00	2	2.26	30.10	0	-8	0	-261	-263	-14	
60192	20	0.00	2	2.17	30.10	0	-8	0	-265	-456	-51	
60301	20	0.00	2	2.17	30.10	0	-8	0	-294	-300	-30	
60408	20	0.00	2	2.00	30.10	0	-7	0	-238	-271	19	
60517	20	0.00	2	2.52	30.10	0	-7	0	-283	-299	-32	
60624	20	0.00	2	2.17	30.10	0	-8	0	-271	-288	-65	
60733	20	0.00	2	2.35	30.10	0	-7	0	-217	-241	4	
60847	20	0.00	2	2.09	30.10	0	-7	0	-302	-184	43	
60955	20	0.00	2	1.74	30.10	0	-8	0	-284	-233	-5	
61063	20	0.00	2	1.56	30.10	0	-8	0	-213	-284	-40	
61171	20	0.00	2	2.44	30.10	0	-7	0	-354	-292	6	
61279	20	0.00	2	2.09	30.10	0	-8	0	-274	-340	5	
61387	20	0.00	2	1.83	30.10	0	-8	0	-211	-233	-44	
61496	20	0.00	1	1.83	30.10	0	-7	0	-300	-403	-68	
61648	20	0.00	2	2.26	30.10	0	-7	0	-250	-197	38	
61756	20	0.00	1	1.74	30.10	0	-8	0	-292	-441	-3	
61863	20	0.00	2	2.17	30.10	0	-8	0	-215	-302	-85	
61978	20	0.00	2	2.44	30.10	0	-7	0	-234	-75	-76	
62085	20	0.00	2	1.83	30.10	0	-8	0	-278	-406	71	
62194	20	0.00	1	1.74	30.10	0	-8	0	-223	143	76	
62301	20	0.00	2	2.44	30.10	0	-8	0	-246	-378	-7	
62410	20	0.00	2	1.91	30.10	0	-8	0	-269	-330	-122	
62519	20	0.00	2	1.83	30.10	0	-7	0	-253	-263	-79	
62626	20	0.00	1	1.56	30.10	0	-7	0	-291	-166	3	
62735	20	0.00	1	1.56	30.10	0	-7	0	-288	-333	-7	
62843	20	0.00	1	1.56	30.10	0	-7	0	-226	-411	-97	
62951	20	0.00	1	1.91	30.10	0	-8	0	-220	-334	-48	
63059	20	0.00	1	1.65	30.10	0	-7	0	-255	-231	56	
63174	20	0.00	1	1.91	30.10	0	-7	0	-331	-181	37	
63281	20	0.00	1	1.91	30.10	0	-8	0	-237	-317	-41	
63389	20	0.00	1	1.91	30.10	0	-8	0	-208	-430	-75	
63497	20	0.00	1	2.00	30.10	0	-8	0	-326	-247	40	
63606	20	0.00	1	1.56	30.10	0	-8	0	-283	-187	76	
63714	20	0.00	1	1.74	30.10	0	-8	0	-231	-304	-96	
63822	20	0.00	1	1.91	30.10	0	-8	0	-274	-523	-136	
63931	20	0.00	1	2.00	30.10	0	-8	0	-274	-314	-16	
64038	20	0.00	1	1.91	30.10	0	-8	0	-272	-138	68	
64147	20	0.00	1	2.09	30.10	0	-8	0	-264	-279	-16	
64261	20	0.00	1	2.26	30.10	0	-8	0	-225	-456	-122	
64369	20	0.00	1	1.91	30.10	0	-8	0	-243	-294	-43	
64476	20	0.00	1	2.09	30.10	0	-7	0	-280	-155	66	
64585	20	0.00	1	1.65	30.10	0	-8	0	-263	-259	-3	
64693	20	0.00	1	1.48	30.10	0	-8	0	-241	-383	-83	
64801	20	0.00	1	1.56	30.10	0	-7	0	-272	-319	-66	
64910	20	0.00	1	1.91	30.10	0	-8	0	-291	-174	35	
65017	20	0.00	1	1.83	30.10	0	-7	0	-268	-240	4	
65126	20	0.00	1	1.30	30.10	0	-8	0	-246	-295	-66	
65234	20	0.00	1	1.48	30.10	0	-8	0	-260	-373	-68	
65342	20	0.00	1	1.83	30.10	0	-8	0	-260	-274	-4	
65456	20	0.00	1	2.17	30.10	0	-7	0	-276	-207	54	
65564	20	0.00	1	2.17	30.10	0	-8	0	-274	-301	-33	
65672	20	0.00	1	2.00	30.10	0	-8	0	-272	-336	-69	
65780	20	0.00	1	2.17	30.10	0	-7	0	-234	-260	-6	
65888	20	0.00	1	2.09	30.20	0	-7	0	-291	-204	9	
65997	20	0.00	1	1.30	30.20	0	-8	0	-260	-214	-7	
66105	20	0.00	1	1.74	30.20	0	-7	0	-245	-267	-12	
66213	20	0.00	1	1.22	30.20	0	-8	0	-267	-303	-1	
66322	20	0.00	1	1.48	30.20	0	-8	0	-264	-215	32	
66429	20	0.00	1	0.43	30.20	0	-8	0	-213	-265	-20	
66545	20	0.00	1	0.43	30.20	0	-8	0	-225	-389	-76	
66652	20	0.00	1	0.25	30.20	0	-7	0	-260	-424	6	
66760	20	0.00	0	0.86	30.20	0	-7	0	-327	-84	42	
66868	20	0.00	0	0.78	30.20	0	-8	0	-265	-272	19	
66976	20	0.00	1	1.48	30.20	0	-7	0	-251	-480	-41	
67085	20	0.00	1	1.48	30.20	0	-7	0	-239	-191	-45	
67193	20	0.00	1	1.56	30.20	0	-8	0	-257	-298	-42	
67301	20	0.00	1	1.65	30.20	0	-8	0	-284	-271	-34	
67409	20	0.00	1	1.74	30.20	0	-8	0	-220	-312	48	
67518	20	0.00	1	2.26	30.20	0	-7	0	-270	-280	-7	
67625	20	0.00	1	2.52	30.20	0	-7	0	-269	-368	-75	
67740	20	0.00	1	1.74	30.20	0	-7	0	-231	-333	-18	
67891	20	0.00	1	1.65	30.20	0	-8	0	-302	-114	16	
67999	20	0.00	1	1.74	30.20	0	-8	0	-244	-243	-25	
68107	20	0.00	1	1.74	30.20	0	-8	0	-325	-205	32	
68215	20	0.00	1	1.74	30.20	0	-8	0	-319	-254	3	
68324	20	0.00	1	0.60	30.20	0	-7	0	-239	-181	-5	
68432	20	0.00	1	1.91	30.20	0	-7	0	-331	-660	-24	
68540	20	0.00	1	1.04	30.20	0	-7	0	-428	-576	51	
68648	20	0.00	1	0.78	30.20	0	-8	0	-177	-187	99	
68757	20	0.00	1	0.86	30.20	0	-7	0	-382	351	44	
68864	20	0.00	1	1.13	30.20	0	-7	0	-411	390	-108	
68979	20	0.00	1	0.86	30.20	0	-7	0	-218	-1195	-32	
69086	20	0.00	1	1.13	30.20	0	-7	0	-197	-324	-102	
69195	20	0.00	1	1.48	30.20	0	-7	0	-259	-646	-46	
69303	20	0.00	1	1.74	30.20	0	-7	0	-348	-259	-24	
69411	20	0.00	1	1.30	30.20	0	-7	0	-251	179	31	
69519	20	0.00	1	1.56	30.20	0	-7	0	-249	191	51	
69627	20	0.00	1	1.65	30.20	0	-8	0	-291	17	2	
69736	20	0.00	1	2.09	30.20	0	-7	0	-212	-135	-10	
69843	20	0.00	1	2.09	30.20	0	-7	0	-213	-309	11	
69952	20	0.00	1	2.09	30.20	0	-7	0	-293	-265	-56	
70066	20	0.00	1	1.83	30.20	0	-7	0	-209	-274	0	
70174	20	0.00	1	1.83	30.20	0	-7	0	-281	-172	-8	
70281	20	0.00	1	1.65	30.20	0	-7	0	-298	-374	-72	
70390	20	0.00	1	1.48	30.20	0	-8	0	-223	-287	-36	
70499	20	0.00	1	1.91	30.20	0	-8	0	-263	-147	22	
70606	20	0.00	1	1.56	30.20	0	-8	0	-303	-187	56	
70715	20	0.00	1	0.34	30.20	0	-8	0	-519	-1094	-605	
70823	20	0.00	1	0.43	30.30	-1	-7	2	245	-3815	-339	
70932	20	0.00	1	0.08	30.30	0	-10	-1	599	-1184	-762	
71039	20	0.00	0	0.08	30.30	0	-10	1	-307	4599	966	
71147	20	0.00	0	0.34	30.30	0	-8	-1	-390	1647	-365	
71262	20	0.00	0	0.08	30.30	-5	-8	-4	-750	2205	1017	
71369	20	0.00	0	-0.27	30.30	0	-8	0	12	-1521	513	
71479	20	0.00	0	-0.80	30.30	0	-7	-1	-955	3110	3	
71588	20	0.00	0	-1.15	30.30	0	-6	0	-610	1363	31	
71697	20	0.00	0	-0.80	30.30	-1	-6	0	-77	-1138	-279	
71806	20	0.00	0	-1.06	30.30	0	-7	-1	-795	711	-576	
71916	20	0.00	0	-0.97	30.30	0	-7	-1	-601	1991	-448	
72024	20	0.00	0	-0.80	30.30	0	-9	-1	230	-5047	-529	
72134	20	0.00	0	-0.97	30.30	1	-8	-1	-404	247	-117	
72243	20	0.00	0	-0.80	30.30	0	-8	0	-326	533	578	
72359	20	0.00	0	-0.62	30.30	0	-8	0	-1014	-2258	220	
72468	20	0.00	0	-0.45	30.30	0	-8	-1	-73	-4611	-264	
72576	20	0.00	0	-0.80	30.30	0	-8	0	251	-2659	282	
72686	20	0.00	0	-0.53	30.30	0	-7	0	-526	1013	375	
72794	20	0.00	0	-0.80	30.30	0	-7	0	-497	-494	370	
72904	20	0.00	0	-0.53	30.30	0	-8	0	-14	-1560	28	
73013	20	0.00	0	-0.53	30.30	0	-7	0	-238	-750	58	
73123	20	0.00	0	-0.71	30.30	0	-8	0	-347	65	60	
73232	20	0.00	0	-0.71	30.30	0	-8	0	-264	-900	-86	
73341	20	0.00	0	-0.53	30.30	0	-8	-1	-223	-434	-143	
73457	20	0.00	0	-1.32	30.30	0	-8	0	-393	-353	-249	
73565	20	0.00	0	-1.06	30.30	0	-8	0	-267	-818	-204	
73674	20	0.00	0	-0.62	30.30	0	-8	0	-217	-388	-163	
73784	20	0.00	0	-0.97	30.30	0	-7	0	-427	-657	171	
73893	20	0.00	0	-0.53	30.30	0	-7	0	-197	262	13	
74002	20	0.00	0	-0.71	30.30	0	-7	0	-329	-329	-65	
74111	20	0.00	0	-0.88	30.30	0	-8	0	-515	-143	248	
74264	20	0.00	0	-0.01	30.30	0	-7	0	-47	977	98	
74372	20	0.00	0	-0.97	30.30	0	-8	0	-404	-182	450	
74482	20	0.00	0	-0.71	30.30	0	-7	3	-264	2456	102	
74598	20	0.00	0	-0.27	30.30	0	-7	0	-275	-126	390	
74706	20	0.00	0	0.17	30.30	0	-8	0	475	337	351	
74814	20	0.00	0	-0.71	30.30	0	-7	0	127	1373	-380	
74923	20	0.00	0	-0.45	30.30	0	-8	-1	-262	875	734	
75033	20	0.00	0	0.08	30.30	-1	-8	0	-609	2431	105	
75140	20	0.00	0	-0.71	30.30	0	-7	0	-96	-2397	149	
75250	20	0.00	0	-0.80	30.30	0	-8	0	30	-736	-463	
75359	20	0.00	0	-0.53	30.30	0	-7	0	-380	1582	-502	
75468	20	0.00	0	-0.45	30.30	0	-7	-1	-792	-2800	-71	
75578	20	0.00	0	-0.45	30.30	0	-8	-1	-316	1471	-321	
75687	20	0.00	0	-0.45	30.30	0	-8	0	-80	-350	-199	
75794	20	0.00	0	-0.71	30.30	0	-7	0	-593	2094	557	
75905	20	0.00	0	-0.53	30.30	0	-7	0	-538	1334	-28	
76014	20	0.00	0	-0.62	30.30	0	-8	0	182	-1088	22	
76123	20	0.00	0	-0.80	30.30	0	-8	0	89	78	1	
76232	20	0.00	0	-0.62	30.30	0	-7	0	-379	-698	343	
76341	20	0.00	0	-0.62	30.30	0	-7	-1	-804	849	-131	
76451	20	0.00	0	-1.23	30.30	0	-8	0	-352	815	-385	
76561	20	0.00	0	-0.71	30.30	0	-8	0	-233	1254	-599	
76669	20	0.00	0	-0.27	30.30	0	-8	0	-197	432	-486	
76779	20	0.00	0	-0.71	30.30	0	-8	0	-379	-399	-112	
76894	20	0.00	0	-0.53	30.30	0	-8	0	-127	-952	70	
77003	20	0.00	0	-0.97	30.30	0	-8	0	-153	-594	174	
77113	20	0.00	0	-1.15	30.30	0	-7	0	-443	-245	144	
77221	20	0.00	0	-1.06	30.30	0	-7	0	-323	-121	-103	
77331	20	0.00	0	-0.97	30.30	0	-7	0	-354	150	110	
77439	20	0.00	0	-1.06	30.30	0	-7	0	-270	-86	-83	
77550	20	0.00	0	-1.23	30.30	0	-7	0	-313	576	-173	
77658	20	0.00	0	-0.62	30.30	0	-7	-1	-103	-644	437	
77767	20	0.00	-1	-1.50	30.30	0	-8	0	-263	695	112	
77877	20	0.00	-1	-1.23	30.40	0	-7	-1	-388	-591	291	
77994	20	0.00	-1	-1.15	30.30	0	-8	-1	-595	-3064	23	
78104	20	0.00	-1	-0.88	30.30	0	-7	-1	-257	-4306	-237	
78214	20	0.00	-1	-1.23	30.30	0	-8	0	-391	120	-295	
78325	20	0.00	-1	-1.15	30.30	0	-7	0	-614	-108	-353	
78435	20	0.00	-1	-1.06	30.40	0	-8	-1	-379	1974	-324	
78545	20	0.00	-1	-1.06	30.40	0	-8	0	25	-1130	41	
78655	20	0.00	-1	-0.80	30.30	0	-8	0	-447	753	12	
78765	20	0.00	0	-0.88	30.40	0	-8	0	-507	710	-103	
78875	20	0.00	-1	-1.23	30.30	0	-8	0	52	-620	-129	
78984	20	0.00	-1	-0.97	30.30	0	-8	0	-161	157	-120	
79102	20	0.00	0	-0.88	30.30	0	-8	0	-365	3908	13	
79210	20	0.00	-1	-1.41	30.40	0	-7	0	-438	134	108	
79320	20	0.00	-1	-1.41	30.30	0	-7	-1	-335	1920	-53	
79431	20	0.00	-1	-1.23	30.40	0	-7	0	-332	500	-262	
79540	20	0.00	-1	-0.80	30.30	0	-7	-1	-26	-1865	391	
79651	20	0.00	-1	-0.71	30.30	0	-7	-1	122	-4033	257	
79762	20	0.00	0	-0.18	30.30	0	-7	0	-193	-2066	-64	
79870	20	0.00	0	-0.27	30.30	0	-8	0	-464	-589	-112	
79980	20	0.00	0	-0.80	30.30	0	-8	0	-311	-1232	101	
80089	20	0.00	0	-1.06	30.30	0	-8	-1	-61	6695	542	
80205	20	0.00	0	-0.10	30.30	0	-8	0	-5	1571	127	
80314	20	0.00	0	1.30	30.30	0	-8	0	-272	-711	218	
80421	20	0.00	0	1.65	30.20	0	-8	0	-406	178	-27	
80530	20	0.00	0	2.09	30.20	0	-8	0	-338	-439	-32	
80682	20	0.00	0	2.17	30.20	0	-7	0	-241	-205	16	
80790	20	0.00	1	2.35	30.20	0	-8	0	-361	-188	13	
80898	20	0.00	0	0.34	30.30	0	-7	0	-268	-307	-20	
81006	20	0.00	0	0.34	30.30	0	-8	0	-173	-405	-9	
81114	20	0.00	1	1.91	30.20	0	-7	0	-320	-593	-28	
81222	20	0.00	1	2.61	30.20	0	-7	-1	-329	-437	-10	
81331	20	0.00	1	2.09	30.20	0	-8	-1	-109	-412	59	
81445	20	0.00	1	2.09	30.20	0	-8	0	-237	29	24	
81553	20	0.00	1	2.52	30.20	0	-7	0	-368	-700	-48	
81661	20	0.00	1	2.35	30.20	0	-8	-1	-301	-235	24	
81769	20	0.00	2	2.52	30.20	0	-8	0	-121	-22	39	
81877	20	0.00	2	2.35	30.20	0	-8	0	-234	-746	-19	
81986	20	0.00	2	2.35	30.20	-2	-7	0	-539	-9418	-207	
82093	20	0.00	2	2.17	30.20	0	-8	0	-14	-8489	-34	
82202	20	0.00	2	2.00	30.30	0	-7	0	-226	1014	-175	
82309	20	0.00	2	1.74	30.30	0	-8	-1	516	4160	954	
82418	20	0.00	2	2.17	30.20	0	-7	0	-320	-659	174	
82533	20	0.00	2	1.83	30.30	0	-8	0	-248	482	-113	
82640	20	0.00	2	2.35	30.30	0	-7	-1	-539	-4335	-578	
82749	20	0.00	2	2.17	30.30	0	-7	0	-327	917	29	
82856	20	0.00	2	2.26	30.30	0	-8	0	-275	-440	65	
82965	20	0.00	2	2.17	30.30	0	-8	0	-141	-1026	-153	
83073	20	0.00	2	2.26	30.30	0	-7	0	-251	-23	-70	
83181	20	0.00	2	1.91	30.30	0	-8	0	-340	283	52	
83289	20	0.00	2	1.56	30.30	0	-7	0	-351	-149	232	
83397	20	0.00	2	2.00	30.30	0	-8	0	-383	160	78	
83505	20	0.00	2	2.17	30.30	0	-7	0	-204	-309	-24	
83614	20	0.00	2	2.52	30.30	0	-8	0	-219	-516	-1	
83729	20	0.00	2	1.91	30.30	0	-8	0	-349	-246	119	
83835	20	0.00	2	2.35	30.30	0	-8	0	-278	-1194	75	
83944	20	0.00	2	2.26	30.30	0	-8	0	-134	-163	-131	
84052	20	0.00	2	1.91	30.30	0	-7	0	-241	-1152	-47	
84160	20	0.00	2	2.00	30.30	0	-7	0	-354	333	51	
84268	20	0.00	2	2.70	30.30	0	-7	-1	-377	503	17	
84376	20	0.00	2	2.00	30.30	0	-7	0	-282	-1282	21	
84484	20	0.00	2	2.44	30.30	0	-8	0	-186	1438	12	
84593	20	0.00	2	1.56	30.30	-1	-8	0	-341	-5763	369	
84700	20	0.00	2	1.83	30.30	-1	-7	0	-660	2431	329	
84816	20	0.00	2	2.00	30.30	0	-7	-1	-338	-2834	194	
84923	20	0.00	2	2.44	30.30	-2	-7	0	182	-1256	-14	
85031	20	0.00	2	1.65	30.30	0	-7	-1	-178	1874	-73	
85140	20	0.00	2	2.44	30.30	0	-7	0	-313	-1026	104	
85247	20	0.00	2	1.65	30.30	0	-7	0	-337	-812	3	
85356	20	0.00	2	2.00	30.30	0	-7	-1	-341	-4152	-363	
85464	20	0.00	1	1.91	30.30	0	-7	0	-313	313	3	
85572	20	0.00	1	1.65	30.30	0	-8	0	-343	-943	65	
85680	20	0.00	1	1.74	30.30	0	-7	-1	-200	-1648	-95	
85788	20	0.00	1	1.65	30.30	0	-8	0	-230	595	-92	
85903	20	0.00	1	1.74	30.30	-1	-8	0	-55	-974	327	
86010	20	0.00	1	2.35	30.30	0	-7	-1	-386	954	111	
86119	20	0.00	1	2.17	30.30	0	-8	0	-214	1574	155	
86227	20	0.00	2	2.17	30.30	0	-8	0	16	-172	-270	
86335	20	0.00	2	2.17	30.30	0	-7	0	-260	3468	241	
86443	20	0.00	2	1.91	30.30	0	-7	0	-488	-6650	-255	
86551	20	0.00	1	1.74	30.30	0	-8	-1	-157	6089	199	
86659	20	0.00	2	2.17	30.30	2	-10	0	191	-1135	-844	
86768	20	0.00	2	2.09	30.30	0	-8	0	-172	770	-90	
86875	20	0.00	2	2.00	30.30	0	-7	0	-365	914	95	
87029	20	0.00	1	1.91	30.30	0	-8	0	-270	80	-26	
87143	20	0.00	2	2.17	30.30	-2	-8	0	-109	-2335	-126	
87250	20	0.00	1	1.65	30.30	0	-7	0	-404	1400	252	
87358	20	0.00	2	2.44	30.30	0	-8	-1	-279	2567	145	
87466	20	0.00	2	2.52	30.40	-3	-8	0	244	2683	153	
87574	20	0.00	2	2.96	30.30	0	-8	-1	-367	924	51	
87682	20	0.00	2	2.78	30.30	0	-8	0	-222	255	4	
87790	20	0.00	2	2.61	30.30	0	-8	0	-225	86	24	
87899	20	0.00	2	2.26	30.30	0	-7	0	-300	46	98	
88007	20	0.00	2	2.70	30.40	0	-8	0	-335	-113	-20	
88114	20	0.00	2	2.35	30.40	0	-7	0	-216	-423	-42	
88223	20	0.00	2	2.17	30.40	0	-8	0	-194	-410	-68	
88328	20	0.00	2	2.44	30.30	0	-8	0	-333	-442	-5	
88439	20	0.00	2	2.09	30.40	0	-8	0	-277	-364	-1	
88548	20	0.00	2	2.61	30.30	0	-8	0	-184	-435	-38	
88656	20	0.00	2	1.83	30.40	0	-7	0	-208	-365	-59	
88764	20	0.00	2	2.00	30.40	0	-8	0	-348	-236	32	
88872	20	0.00	2	2.17	30.40	0	-8	0	-307	-137	49	
88980	20	0.00	2	1.91	30.40	0	-8	0	-191	-281	-44	
89088	20	0.00	2	2.44	30.40	0	-8	0	-260	-546	-126	
89197	20	0.00	2	2.61	30.30	0	-8	0	-278	-311	53	
89304	20	0.00	2	2.87	30.40	0	-7	-1	-236	-184	78	
89420	20	0.00	2	2.00	30.40	0	-8	0	-300	-209	-44	
89527	20	0.00	2	2.78	30.40	0	-7	0	-206	-586	-85	
89635	20	0.00	2	2.26	30.40	0	-8	0	-238	-237	-30	
89743	20	0.00	2	2.35	30.40	0	-8	0	-312	-224	54	
89851	20	0.00	2	2.44	30.40	0	-8	0	-301	-48	3	
89960	20	0.00	2	2.61	30.40	0	-8	0	-225	-61	-31	
90067	20	0.00	2	2.52	30.40	0	-7	0	-276	-110	-21	
90177	20	0.00	2	2.52	30.40	0	-8	0	-281	-146	69	
90284	20	0.00	2	2.35	30.40	0	-8	0	-225	-86	49	
90392	20	0.00	2	2.52	30.40	0	-8	0	-221	-283	-78	
90500	20	0.00	2	2.78	30.40	0	-8	0	-275	-511	-76	
90615	20	0.00	2	2.44	30.40	0	-7	0	-260	-384	1	
90723	20	0.00	2	2.70	30.40	0	-7	0	-286	-411	3	
90830	20	0.00	2	2.70	30.40	0	-8	0	-282	-408	-42	
90939	20	0.00	2	2.00	30.40	0	-8	0	-224	-344	-56	
91047	20	0.00	2	2.09	30.40	0	-8	0	-311	-224	-6	
91155	20	0.00	2	2.09	30.40	-2	-8	0	-445	-3293	-506	
91263	20	0.00	2	2.35	30.40	1	-9	0	-213	6291	-328	
91372	20	0.00	2	2.09	30.40	0	-8	0	-243	-1766	185	
91479	20	0.00	2	1.56	30.40	0	-7	-1	-201	6305	566	
91588	20	0.00	2	1.74	30.40	0	-7	-1	-369	250	21	
91703	20	0.00	1	0.60	30.50	0	-8	-1	-398	-75	-154	
91810	20	0.00	1	2.35	30.40	0	-8	0	-275	-372	8	
91918	20	0.00	2	2.52	30.40	0	-8	0	-297	-10	52	
92026	20	0.00	2	2.52	30.40	0	-7	0	-238	-692	-104	
92135	20	0.00	2	2.61	30.40	0	-8	-1	-324	-674	-189	
92242	20	0.00	2	2.44	30.40	0	-7	0	-184	-616	12	
92351	20	0.00	2	2.35	30.40	-1	-8	0	-349	-16739	-800	
92459	20	0.00	2	2.17	30.40	0	-7	-2	-812	1263	55	
92567	20	0.00	2	2.70	30.40	0	-8	0	-74	-266	-25	
92675	20	0.00	2	2.17	30.40	0	-7	0	-154	431	206	
92783	20	0.00	2	2.52	30.40	0	-7	0	-454	359	143	
92898	20	0.00	2	2.00	30.40	0	-8	-1	-240	-466	-82	
93005	20	0.00	2	2.17	30.40	0	-8	0	-222	67	-39	
93114	20	0.00	2	2.44	30.40	0	-8	0	-334	-1024	84	
93266	20	0.00	2	2.26	30.40	0	-8	0	-189	-3778	19	
93373	20	0.00	2	2.52	30.40	0	-7	0	-47	-7978	-80	
93481	20	0.00	2	2.26	30.40	0	-8	0	-75	-8404	-36	
93590	20	0.00	2	1.30	30.50	0	-8	0	-183	-1918	55	
93697	20	0.00	2	1.74	30.40	0	-8	0	-147	654	49	
93806	20	0.00	1	1.56	30.40	-2	-9	1	-198	4687	750	
93914	20	0.00	1	1.65	30.40	0	-7	0	-317	-1616	-23	
94029	20	0.00	1	1.83	30.50	0	-8	0	-269	73	6	
94136	20	0.00	1	1.65	30.40	0	-8	0	-208	742	92	
94244	20	0.00	1	1.83	30.40	0	-7	0	-316	-204	29	
94353	20	0.00	1	1.65	30.40	0	-8	0	-309	-350	-77	
94460	20	0.00	1	1.56	30.40	0	-7	0	-211	-501	-90	
94570	20	0.00	1	1.65	30.40	0	-7	0	-239	-442	-59	
94677	20	0.00	1	1.91	30.50	0	-8	0	-294	-299	11	
94785	20	0.00	1	1.65	30.50	0	-7	0	-249	-261	-40	
94893	20	0.00	1	1.91	30.40	0	-8	0	-287	-443	-32	
95002	20	0.00	1	2.00	30.50	0	-8	0	-299	-219	16	
95109	20	0.00	1	1.74	30.50	0	-7	0	-260	-76	67	
95224	20	0.00	1	1.74	30.50	0	-7	0	-289	-240	-26	
95332	20	0.00	1	1.48	30.50	0	-8	0	-277	-463	-83	
95440	20	0.00	1	2.09	30.40	0	-8	0	-288	-405	-61	
95548	20	0.00	1	1.91	30.40	0	-8	0	-249	-344	27	
95656	20	0.00	1	2.17	30.50	0	-8	0	-293	-313	-48	
95765	20	0.00	1	1.83	30.50	0	-8	0	-276	-304	-64	
95872	20	0.00	1	1.91	30.50	0	-8	0	-205	-233	-2	
95981	20	0.00	1	2.09	30.50	0	-7	0	-280	-167	51	
96088	20	0.00	1	1.91	30.50	0	-7	0	-288	-237	-6	
96197	20	0.00	1	1.83	30.50	0	-8	0	-201	-305	-60	
96312	20	0.00	1	2.00	30.50	0	-8	0	-272	-389	-54	
96419	20	0.00	1	1.83	30.50	0	-8	0	-307	-331	16	
96528	20	0.00	1	2.09	30.50	0	-7	0	-204	-265	-21	
96635	20	0.00	1	2.00	30.50	0	-8	0	-246	-386	-64	
96744	20	0.00	1	2.00	30.50	0	-8	0	-320	-299	-15	
96851	20	0.00	1	1.91	30.50	0	-8	0	-258	-162	30	
96960	20	0.00	1	2.00	30.50	0	-8	0	-247	-91	55	
97068	20	0.00	1	2.09	30.50	0	-7	0	-307	-270	-30	
97176	20	0.00	2	2.09	30.50	0	-8	0	-227	-283	-77	
97284	20	0.00	2	2.61	30.50	0	-8	0	-255	-278	-30	
97393	20	0.00	2	2.26	30.50	0	-8	0	-279	-298	2	
97508	20	0.00	2	2.09	30.50	0	-7	0	-270	-283	-42	
97614	20	0.00	2	2.52	30.50	0	-8	0	-254	-426	-72	
97723	20	0.00	2	2.17	30.50	0	-8	0	-277	-306	-40	
97831	20	0.00	2	1.74	30.50	0	-8	0	-273	-155	49	
97939	20	0.00	2	1.74	30.50	0	-8	0	-262	-195	18	
98047	20	0.00	1	1.48	30.50	0	-7	0	-247	-307	-46	
98156	20	0.00	1	1.65	30.50	0	-8	0	-306	-309	-62	
98263	20	0.00	1	1.56	30.50	0	-8	0	-247	-247	-4	
98372	20	0.00	1	1.74	30.50	0	-8	0	-227	-259	-15	
98479	20	0.00	1	2.09	30.50	0	-8	0	-269	-358	-61	
98595	20	0.00	1	1.56	30.50	0	-8	0	-282	-291	-21	
98702	20	0.00	1	1.83	30.50	0	-7	0	-253	-149	17	
98810	20	0.00	1	2.52	30.50	0	-8	0	-264	-128	20	
98919	20	0.00	1	1.74	30.50	0	-7	0	-239	-364	-43	
99026	20	0.00	1	2.35	30.50	0	-8	0	-259	-294	-12	
99135	20	0.00	1	1.83	30.50	0	-7	0	-265	-244	-23	
99242	20	0.00	2	2.26	30.50	0	-7	0	-221	-315	0	
99351	20	0.00	2	2.35	30.50	0	-7	0	-264	-284	-76	
99459	20	0.00	2	2.00	30.50	0	-8	0	-276	-256	-22	
99612	20	0.00	2	2.17	30.50	0	-8	0	-250	-187	-30	
99719	20	0.00	2	2.17	30.50	0	-7	0	-259	-369	-64	
99834	20	0.00	2	1.83	30.50	0	-7	0	-275	-297	-22	
99942	20	0.00	2	1.91	30.50	0	-8	0	-269	-197	-6	
100049	20	0.00	2	1.91	30.50	0	-8	0	-274	-205	-8	
100159	20	0.00	1	1.65	30.50	0	-8	0	-279	-247	-36	
100268	20	0.00	1	2.09	30.50	0	-8	0	-267	-289	-26	
100377	20	0.00	1	2.00	30.50	0	-7	0	-163	-221	-26	
100486	20	0.00	1	1.83	30.50	0	-8	0	-224	-336	-7	
100595	20	0.00	1	2.09	30.50	0	-7	0	-233	-337	-54	
100704	20	0.00	2	2.17	30.50	0	-7	0	-270	-474	-45	
100814	20	0.00	2	2.26	30.50	0	-7	0	-280	-190	-10	
100930	20	0.00	2	2.17	30.50	0	-7	0	-288	18	3	
101038	20	0.00	2	2.00	30.50	0	-8	0	-309	-860	-54	
101148	20	0.00	2	2.26	30.50	0	-7	0	-400	-2731	-183	
101256	20	0.00	2	1.65	30.50	0	-7	0	-182	5346	144	
101366	20	0.00	2	2.17	30.50	0	-8	0	-238	-121	109	
101475	20	0.00	2	2.35	30.50	0	-8	0	-289	197	126	
101584	20	0.00	2	2.17	30.50	0	-8	0	-322	1320	49	
101694	20	0.00	2	2.17	30.50	-1	-8	0	-239	-238	27	
101802	20	0.00	2	1.74	30.50	0	-8	0	-249	-321	-20	
101912	20	0.00	1	1.74	30.50	0	-7	0	-253	-200	-33	
102021	20	0.00	1	1.65	30.50	0	-8	0	-243	-413	-126	
102128	20	0.00	1	2.09	30.50	0	-8	0	-236	-786	-108	
102239	20	0.00	1	1.91	30.50	0	-8	0	-238	-399	2	
102348	20	0.00	1	2.09	30.50	0	-8	0	-304	-60	27	
102458	20	0.00	1	1.74	30.50	0	-8	0	-291	-147	31	
102567	20	0.00	1	2.17	30.50	0	-8	0	-242	-70	20	
102676	20	0.00	1	2.00	30.50	0	-8	0	-257	-110	20	
102785	20	0.00	2	2.44	30.50	0	-8	0	-258	-348	-7	
102895	20	0.00	2	2.44	30.50	0	-7	0	-256	-474	-82	
103003	20	0.00	2	2.00	30.50	0	-7	0	-260	-588	-115	
103113	20	0.00	2	2.52	30.50	0	-7	0	-283	-281	-7	
103229	20	0.00	2	2.35	30.50	0	-8	0	-288	-121	49	
103337	20	0.00	2	2.17	30.50	0	-7	0	-297	-166	45	
103446	20	0.00	2	2.26	30.50	0	-8	0	-254	-207	-32	
103555	20	0.00	2	2.26	30.50	0	-7	0	-255	-286	-59	
103665	20	0.00	2	2.09	30.50	0	-8	0	-249	-523	-46	
103773	20	0.00	2	2.35	30.50	0	-8	0	-252	-371	-16	
103883	20	0.00	2	2.35	30.60	0	-7	0	-270	-332	-52	
103993	20	0.00	2	2.35	30.50	-1	-8	0	-407	-1730	-290	
104101	20	0.00	2	2.44	30.50	0	-8	0	-354	-321	-290	
104211	20	0.00	2	1.91	30.60	0	-7	0	-285	-4864	-18	
104326	20	0.00	2	2.17	30.50	-1	-8	0	-205	1285	7	
104435	20	0.00	2	2.00	30.60	-1	-8	0	-310	-903	368	
104544	20	0.00	2	2.17	30.50	-1	-8	-1	-225	-234	-17	
104653	20	0.00	2	2.00	30.60	0	-8	0	-327	-439	-181	
104763	20	0.00	2	2.78	30.50	0	-7	0	-198	1954	346	
104872	20	0.00	2	1.83	30.60	-1	-7	-1	-766	377	389	
104981	20	0.00	2	2.00	30.60	-1	-8	0	4	-870	-185	
105090	20	0.00	2	1.91	30.60	0	-8	0	-289	-2449	-233	
105200	20	0.00	2	2.44	30.60	0	-7	0	-355	1554	283	
105308	20	0.00	2	2.44	30.60	-1	-8	0	-506	1012	27	
105424	20	0.00	2	2.44	30.60	0	-8	0	-100	1802	279	
105533	20	0.00	2	2.00	30.60	-1	-7	0	4	-2232	-271	
105642	20	0.00	2	1.91	30.60	0	-8	0	-224	-431	-17	
105751	20	0.00	2	2.26	30.60	0	-9	0	213	-2558	101	
105905	20	0.00	2	1.65	30.60	-1	-9	1	-70	1189	-230	
106014	20	0.00	2	2.00	30.60	0	-8	0	-336	-275	-138	
106122	20	0.00	2	2.00	30.60	2	-9	0	265	-466	-586	
106232	20	0.00	2	2.09	30.60	0	-8	0	-276	-1607	-47	
106342	20	0.00	2	2.78	30.60	0	-7	0	-215	-334	168	
106450	20	0.00	2	3.66	30.60	-1	-7	0	-477	-697	-61	
106566	20	0.00	2	2.96	30.60	-1	-7	0	-617	904	110	
106674	20	0.00	2	1.83	30.60	0	-8	0	-319	-598	67	
106784	20	0.00	2	2.17	30.60	-1	-8	-1	-308	-1658	-57	
106894	20	0.00	2	2.00	30.60	-1	-8	1	-24	-2643	-510	
107002	20	0.00	2	2.00	30.60	0	-8	0	-161	1847	-157	
107112	20	0.00	2	1.48	30.60	-1	-8	1	-128	-88	37	
107220	20	0.00	2	1.65	30.60	0	-8	0	-6	1626	54	
107330	20	0.00	1	1.83	30.60	-2	-7	0	-668	2779	555	
107439	20	0.00	1	2.00	30.60	0	-8	0	-349	1109	-68	
107548	20	0.00	1	1.74	30.60	-1	-8	0	-251	-736	-67	
107657	20	0.00	1	2.09	30.60	0	-8	0	-312	-771	3	
107773	20	0.00	1	1.56	30.60	0	-8	0	-189	-2918	-138	
107882	20	0.00	1	1.91	30.60	0	-7	0	-335	-108	23	
107990	20	0.00	1	1.56	30.60	0	-8	0	-224	234	-9	
108100	20	0.00	1	1.83	30.60	0	-8	0	-22	872	51	
108209	20	0.00	1	1.91	30.60	0	-8	0	-307	553	-20	
108318	20	0.00	1	1.48	30.60	0	-7	0	-208	-934	69	
108427	20	0.00	1	2.09	30.60	-1	-7	0	-167	-719	-93	
108537	20	0.00	1	1.30	30.60	0	-8	0	-333	-2014	-141	
108646	20	0.00	1	1.56	30.60	0	-7	0	-285	-2145	-44	
108755	20	0.00	1	1.83	30.60	0	-7	0	-428	-2618	-310	
108871	20	0.00	1	1.83	30.60	-1	-8	0	-458	1114	-63	
108979	20	0.00	1	1.56	30.60	0	-8	0	-489	1319	208	
109089	20	0.00	1	1.83	30.60	0	-7	0	-557	579	-320	
109198	20	0.00	1	1.74	30.60	0	-9	0	157	8928	316	
109308	20	0.00	1	2.09	30.60	0	-7	0	-616	-494	-177	
109417	20	0.00	1	1.83	30.60	0	-8	0	-239	-1220	58	
109525	20	0.00	1	1.91	30.60	0	-8	0	-375	-646	155	
109635	20	0.00	1	2.00	30.60	-1	-7	0	-217	-79	-49	
109744	20	0.00	1	1.91	30.60	-1	-8	0	-214	-1914	-121	
109853	20	0.00	1	1.65	30.60	0	-7	0	-746	1822	4	
109969	20	0.00	1	1.83	30.60	-1	-8	0	-442	1588	231	
110077	20	0.00	1	1.56	30.60	0	-8	0	-279	-1910	-125	
110187	20	0.00	1	2.00	30.60	0	-8	0	-154	962	-23	
110295	20	0.00	1	2.00	30.60	0	-8	0	-271	-911	-56	
110405	20	0.00	1	2.09	30.60	0	-7	0	-348	-660	-48	
110514	20	0.00	1	1.74	30.60	0	-7	-1	-737	-3781	-425	
110623	20	0.00	1	1.74	30.60	-1	-7	0	-4	-1907	204	
110733	20	0.00	1	2.26	30.60	0	-8	-1	-371	2308	-187	
110842	20	0.00	1	2.09	30.60	0	-5	0	-37	-3960	227	
110951	20	0.00	2	2.61	30.60	0	-7	0	-389	2516	-151	
111066	20	0.00	2	2.00	30.60	0	-8	0	-291	5218	99	
111175	20	0.00	2	2.26	30.60	0	-8	0	-293	-873	-273	
111284	20	0.00	2	2.17	30.60	0	-7	0	-334	-915	118	
111394	20	0.00	2	1.74	30.60	0	-7	0	-317	219	107	
111504	20	0.00	2	2.17	30.60	0	-8	0	-247	82	-88	
111612	20	0.00	2	1.83	30.60	0	-7	0	-169	-376	-82	
111721	20	0.00	2	2.09	30.60	0	-8	0	-295	-278	59	
111830	20	0.00	2	2.00	30.60	-1	-7	0	-453	-5596	-100	
111940	20	0.00	2	2.00	30.60	0	-7	0	-129	1493	176	
112048	20	0.00	2	2.52	30.60	0	-7	0	-162	564	-100	
112209	20	0.00	2	1.83	30.60	0	-8	-1	-542	344	186	
112318	20	0.00	2	2.09	30.60	0	-8	0	-427	1278	124	
112427	20	0.00	2	2.52	30.60	0	-8	0	-118	-1120	-212	
112536	20	0.00	2	2.26	30.60	0	-8	0	-165	-79	-143	
112645	20	0.00	2	1.48	30.60	0	-8	0	-352	1149	257	
112755	20	0.00	2	2.00	30.60	0	-8	0	-356	-493	139	
112863	20	0.00	1	1.83	30.60	-1	-8	0	-129	-2408	-265	
112973	20	0.00	2	2.26	30.60	0	-7	0	98	-3779	-437	
113083	20	0.00	1	1.74	30.60	1	-7	0	-830	4025	223	
113191	20	0.00	1	1.74	30.60	0	-7	-1	-578	1368	505	
113307	20	0.00	1	1.56	30.60	-2	-8	0	-481	1928	440	
113415	20	0.00	1	2.00	30.60	-1	-8	0	-237	495	-21	
113525	20	0.00	1	1.56	30.60	0	-8	0	-294	-248	-24	
113634	20	0.00	1	1.91	30.60	0	-8	0	-311	157	99	
113744	20	0.00	1	1.65	30.60	0	-7	0	-246	-143	43	
113853	20	0.00	1	1.65	30.60	0	-8	0	-238	-547	-148	
113961	20	0.00	1	1.56	30.60	0	-7	0	-278	-475	-125	
114071	20	0.00	1	2.09	30.60	0	-7	0	-249	-107	40	
114180	20	0.00	1	1.56	30.60	0	-7	0	-270	-238	34	
114289	20	0.00	1	2.26	30.60	0	-8	0	-276	-388	-72	
114398	20	0.00	1	1.56	30.60	0	-8	0	-213	-546	-57	
114531	20	0.00	1	1.91	30.60	0	-8	0	-339	-52	98	
114638	20	0.00	1	2.17	30.60	0	-8	0	-280	-211	-18	
114748	20	0.00	1	1.91	30.60	0	-8	0	-281	-334	-99	
114857	20	0.00	1	1.56	30.60	0	-7	0	-146	-225	-97	
114966	20	0.00	1	2.09	30.60	0	-7	0	-330	-116	55	
115075	20	0.00	1	2.17	30.60	0	-8	0	-238	17	-86	
115185	20	0.00	1	2.09	30.60	0	-8	0	-291	492	48	
115293	20	0.00	1	1.91	30.60	0	-7	0	-443	1326	22	
115403	20	0.00	1	2.00	30.60	0	-7	0	-286	912	5	
115512	20	0.00	1	2.00	30.60	0	-8	0	-287	-15	0	
115628	20	0.00	2	2.17	30.60	0	-7	0	-243	-391	-69	
115736	20	0.00	2	2.26	30.60	0	-8	-1	-268	-521	-25	
115846	20	0.00	2	2.17	30.60	0	-7	0	-280	-759	-7	
115955	20	0.00	2	2.00	30.60	0	-8	0	-292	-361	-58	
116063	20	0.00	2	1.83	30.60	0	-7	0	-196	-362	-80	
116173	20	0.00	1	1.30	30.60	0	-8	0	-171	656	-146	
116283	20	0.00	1	2.17	30.60	0	-8	0	-305	3160	37	
116391	20	0.00	1	2.17	30.60	-1	-8	0	-261	-307	39	
116501	20	0.00	1	1.83	30.60	0	-8	0	-212	44	-125	
116610	20	0.00	1	2.09	30.60	0	-8	0	-244	-561	-152	
116719	20	0.00	2	2.09	30.60	0	-8	0	-342	-968	78	
116835	20	0.00	1	1.83	30.60	0	-8	0	-253	1244	115	
116943	20	0.00	2	2.61	30.60	0	-7	0	-291	-673	-69	
117053	20	0.00	2	2.35	30.60	0	-8	0	-232	-741	-168	
117162	20	0.00	1	1.39	30.60	0	-8	0	-284	-22	-16	
117271	20	0.00	2	2.52	30.60	0	-7	0	-277	-168	21	
117380	20	0.00	2	2.44	30.60	0	-8	0	-275	-402	-93	
117489	20	0.00	2	2.26	30.60	0	-8	0	-248	-426	-115	
117598	20	0.00	2	2.00	30.60	0	-7	0	-226	-282	6	
117708	20	0.00	2	1.83	30.60	0	-8	0	-298	-231	5	
117817	20	0.00	2	2.00	30.60	0	-8	0	-300	-409	0	
117932	20	0.00	2	2.00	30.60	0	-8	0	-236	-217	-48	
118042	20	0.00	2	2.17	30.60	0	-8	0	-269	-147	-31	
118150	20	0.00	2	2.52	30.60	0	-8	0	-295	-131	52	
118259	20	0.00	2	1.91	30.60	0	-8	0	-263	-146	25	
118368	20	0.00	2	2.70	30.60	0	-7	0	-251	-252	-43	
118522	20	0.00	2	2.17	30.60	0	-8	0	-248	-334	4	
118631	20	0.00	2	2.70	30.60	0	-7	0	-252	-321	40	
118740	20	0.00	2	2.09	30.60	0	-8	0	-243	-338	-32	
118849	20	0.00	2	1.83	30.60	0	-8	0	-236	-332	-77	
118958	20	0.00	2	2.44	30.60	0	-8	0	-244	-175	37	
119074	20	0.00	2	1.83	30.60	0	-7	0	-299	-134	39	
119183	20	0.00	2	2.00	30.60	0	-8	0	-260	-212	-12	
119291	20	0.00	2	2.35	30.60	0	-8	0	-234	-298	-62	
119401	20	0.00	2	2.26	30.60	0	-8	0	-255	-278	-22	
119510	20	0.00	2	2.09	30.60	0	-8	0	-264	-90	29	
119619	20	0.00	2	2.61	30.60	0	-8	0	-249	-285	-20	
119728	20	0.00	2	2.87	30.60	0	-8	0	-228	-476	-69	
119838	20	0.00	2	2.52	30.60	0	-8	0	-234	-341	-24	
119946	20	0.00	2	2.52	30.60	0	-8	0	-293	-157	52	
120056	20	0.00	2	2.35	30.60	0	-8	0	-272	-286	46	
120165	20	0.00	2	1.83	30.60	0	-8	0	-218	-404	-70	
120281	20	0.00	2	2.52	30.70	0	-7	0	-259	-410	-47	
120390	20	0.00	2	2.17	30.70	0	-8	0	-272	-245	43	
120499	20	0.00	2	2.78	30.70	0	-8	0	-244	-220	12	
120608	20	0.00	2	2.35	30.60	0	-8	0	-261	-400	-41	
120718	20	0.00	2	2.78	30.60	0	-8	0	-265	-416	-42	
120827	20	0.00	2	2.44	30.60	0	-8	0	-286	-132	2	
120936	20	0.00	2	2.78	30.70	0	-8	0	-284	-215	34	
121045	20	0.00	2	2.09	30.70	0	-8	0	-241	-362	-61	
121155	20	0.00	2	2.61	30.70	0	-7	0	-287	-290	-52	
121263	20	0.00	2	2.70	30.70	0	-8	0	-282	-144	21	
121379	20	0.00	2	2.44	30.70	0	-8	0	-284	-133	31	
121488	20	0.00	2	2.17	30.70	0	-7	0	-258	-303	-47	
121597	20	0.00	2	2.35	30.70	0	-7	0	-255	-392	-34	
121706	20	0.00	2	2.09	30.70	0	-8	0	-262	-313	-2	
121815	20	0.00	2	2.09	30.70	0	-8	0	-274	-229	13	
121925	20	0.00	2	2.52	30.70	0	-8	0	-249	-385	-51	
122033	20	0.00	2	2.52	30.70	0	-8	0	-250	-430	-52	
122143	20	0.00	2	2.35	30.70	0	-7	0	-269	-302	-15	
122253	20	0.00	2	2.78	30.70	0	-8	0	-247	-255	-2	
122361	20	0.00	2	2.87	30.70	0	-8	0	-237	-232	-23	
122478	20	0.00	2	2.35	30.70	0	-8	0	-291	-246	-43	
122586	20	0.00	2	2.17	30.70	0	-8	0	-259	-255	17	
122696	20	0.00	2	2.17	30.70	0	-7	0	-251	-239	10	
122804	20	0.00	2	2.17	30.70	0	-8	0	-278	-360	-42	
122914	20	0.00	2	2.35	30.70	0	-8	0	-258	-312	-54	
123023	20	0.00	2	2.17	30.70	0	-8	0	-255	-210	9	
123132	20	0.00	2	2.00	30.70	0	-8	0	-295	-236	-4	
123242	20	0.00	2	2.44	30.70	0	-8	0	-271	-329	-41	
123350	20	0.00	2	2.26	30.70	0	-8	0	-253	-364	-43	
123460	20	0.00	2	2.44	30.70	0	-8	0	-268	-347	-34	
123569	20	0.00	2	2.17	30.70	0	-8	0	-265	-336	0	
123685	20	0.00	2	2.26	30.70	0	-8	0	-235	-324	-20	
123794	20	0.00	2	2.09	30.70	0	-8	0	-244	-387	-38	
123902	20	0.00	2	2.26	30.70	0	-7	0	-303	-357	-28	
124012	20	0.00	2	2.35	30.70	0	-8	0	-274	-232	4	
124121	20	0.00	2	2.52	30.70	0	-7	0	-262	-235	-25	
124230	20	0.00	2	3.31	30.70	0	-8	0	-287	-268	-33	
124339	20	0.00	2	2.00	30.70	0	-8	0	-265	-268	28	
124448	20	0.00	2	2.26	30.70	0	-8	0	-287	-198	2	
124558	20	0.00	2	2.70	30.70	0	-8	0	-288	-328	-16	
124667	20	0.00	2	2.17	30.70	0	-8	0	-232	-284	-27	
124828	20	0.00	2	2.26	30.70	0	-8	0	-311	-181	-14	
124935	20	0.00	2	2.35	30.70	0	-7	0	-282	-142	13	
125045	20	0.00	2	2.78	30.70	0	-8	0	-247	-253	-29	
125155	20	0.00	2	2.26	30.70	0	-8	0	-255	-276	-22	
125263	20	0.00	2	2.00	30.70	0	-8	0	-270	-110	20	
125373	20	0.00	2	2.26	30.70	0	-8	0	-237	-189	17	
125482	20	0.00	2	2.17	30.70	0	-7	0	-305	-332	-40	
125591	20	0.00	2	2.09	30.70	0	-7	0	-234	-218	-16	
125700	20	0.00	2	2.26	30.70	0	-8	0	-277	-186	-16	
125810	20	0.00	2	2.44	30.70	0	-8	0	-258	-307	-18	
125926	20	0.00	2	2.26	30.70	0	-7	0	-253	-494	-64	
126034	20	0.00	2	2.09	30.70	0	-7	0	-227	-376	-18	
126143	20	0.00	2	2.70	30.70	0	-8	0	-261	-211	6	
126252	20	0.00	2	2.61	30.70	0	-7	0	-251	-261	-4	
126362	20	0.00	2	2.44	30.70	0	-7	0	-244	-327	-87	
126470	20	0.00	2	1.91	30.70	0	-8	0	-281	-245	-9	
126580	20	0.00	2	2.26	30.70	0	-7	0	-244	-108	38	
126688	20	0.00	2	2.35	30.70	0	-7	0	-281	-135	-6	
126798	20	0.00	2	2.44	30.70	0	-8	0	-266	-343	-64	
126908	20	0.00	2	2.61	30.70	0	-8	0	-266	-331	-30	
127016	20	0.00	2	2.09	30.70	0	-8	0	-259	-189	4	
127132	20	0.00	2	2.52	30.70	0	-7	0	-263	-244	-10	
127240	20	0.00	2	1.74	30.70	0	-7	0	-235	-403	-74	
127350	20	0.00	2	2.26	30.70	0	-7	0	-274	-311	-8	
127460	20	0.00	2	1.74	30.70	0	-7	0	-279	-90	31	
127568	20	0.00	2	1.56	30.70	0	-8	0	-257	-166	2	
127678	20	0.00	2	2.09	30.70	0	-8	0	-229	-380	-19	
127787	20	0.00	2	2.35	30.70	0	-7	0	-246	-430	-58	
127896	20	0.00	2	2.26	30.70	0	-8	0	-272	-178	2	
128005	20	0.00	2	2.35	30.70	0	-7	0	-246	16	70	
128114	20	0.00	2	1.74	30.70	0	-8	0	-252	-130	-21	
128231	20	0.00	2	2.35	30.70	0	-8	0	-281	-206	-49	
128339	20	0.00	2	2.09	30.70	0	-8	0	-247	-93	50	
128448	20	0.00	2	1.83	30.70	0	-7	0	-291	-240	1	
128557	20	0.00	2	2.61	30.70	0	-8	0	-274	-390	-81	
128666	20	0.00	2	2.09	30.80	0	-7	0	-250	-307	-23	
128775	20	0.00	2	2.17	30.70	0	-8	0	-276	-207	11	
128885	20	0.00	2	2.09	30.80	0	-8	0	-303	-320	-22	
128994	20	0.00	2	2.61	30.80	0	-8	0	-223	-450	-85	
129103	20	0.00	2	2.00	30.70	0	-8	0	-267	-407	-44	
129213	20	0.00	2	2.26	30.80	0	-8	0	-310	-324	10	
129321	20	0.00	2	2.70	30.80	0	-7	0	-286	-165	31	
129437	20	0.00	2	2.61	30.80	0	-8	0	-229	-382	-72	
129545	20	0.00	2	2.35	30.80	0	-7	0	-256	-486	-93	
129655	20	0.00	2	2.52	30.80	0	-8	0	-286	-194	9	
129764	20	0.00	2	2.70	30.80	0	-7	0	-276	-164	38	
129873	20	0.00	2	2.44	30.80	0	-8	0	-278	-264	-31	
129983	20	0.00	2	2.87	30.80	0	-8	0	-245	-305	-56	
130091	20	0.00	2	1.91	30.80	0	-8	0	-276	-210	28	
130201	20	0.00	2	2.09	30.80	0	-8	0	-275	-208	40	
130310	20	0.00	2	2.00	30.80	0	-7	0	-261	-289	-21	
130419	20	0.00	2	2.17	30.80	0	-8	0	-215	-318	-51	
130536	20	0.00	2	2.44	30.80	0	-8	0	-284	-309	-12	
130644	20	0.00	2	2.78	30.80	0	-7	0	-314	-123	24	
130754	20	0.00	2	2.26	30.80	0	-7	0	-236	-311	-8	
130862	20	0.00	2	2.09	30.80	0	-8	0	-257	-434	-65	
130972	20	0.00	2	2.09	30.80	0	-8	0	-274	-299	-46	
131125	20	0.00	2	2.00	30.80	0	-7	0	-304	-159	-14	
131234	20	0.00	2	2.09	30.80	0	-7	0	-257	-283	-39	
131344	20	0.00	2	2.09	30.80	0	-8	0	-268	-401	-8	
131452	20	0.00	2	2.44	30.80	0	-8	0	-266	-261	-16	
131562	20	0.00	2	2.61	30.80	0	-8	0	-301	-316	6	
131677	20	0.00	2	1.83	30.80	0	-8	0	-250	-286	-33	
131786	20	0.00	2	2.00	30.80	0	-8	0	-255	-272	-10	
131896	20	0.00	2	2.52	30.80	0	-8	0	-291	-169	1	
132004	20	0.00	2	2.35	30.80	0	-8	0	-270	-231	-1	
132114	20	0.00	2	2.70	30.80	0	-8	0	-249	-304	-37	
132223	20	0.00	2	2.44	30.80	0	-8	0	-270	-340	-23	
132332	20	0.00	2	2.09	30.80	0	-8	0	-268	-261	-5	
132441	20	0.00	2	2.44	30.80	0	-8	0	-251	-280	-9	
132550	20	0.00	2	2.35	30.80	0	-8	0	-283	-305	-38	
132659	20	0.00	2	2.00	30.80	0	-8	0	-268	-352	-48	
132769	20	0.00	2	2.44	30.80	0	-8	0	-218	-315	9	
132885	20	0.00	2	2.78	30.80	0	-8	0	-305	-238	18	
132993	20	0.00	2	2.96	30.80	0	-8	0	-298	-258	-47	
133102	20	0.00	2	2.00	30.80	0	-7	0	-235	-247	-24	
133211	20	0.00	2	2.35	30.80	0	-8	0	-248	-218	0	
133321	20	0.00	2	2.35	30.80	0	-8	0	-311	-271	-16	
133429	20	0.00	2	2.35	30.80	0	-8	0	-249	-274	-19	
133539	20	0.00	2	2.35	30.80	0	-7	0	-268	-285	-17	
133649	20	0.00	2	2.61	30.80	0	-8	0	-303	-252	1	
133757	20	0.00	2	2.17	30.80	0	-8	0	-212	-273	-6	
133867	20	0.00	2	2.44	30.80	0	-8	0	-293	-283	-12	
133982	20	0.00	2	2.44	30.80	0	-8	0	-290	-377	-51	
134091	20	0.00	2	2.70	30.80	0	-7	0	-258	-328	-41	
134201	20	0.00	2	2.44	30.80	0	-7	0	-258	-309	-15	
134309	20	0.00	2	2.61	30.80	0	-7	0	-245	-298	-47	
134419	20	0.00	2	2.26	30.80	0	-8	0	-253	-336	-46	
134527	20	0.00	2	2.26	30.80	0	-8	0	-255	-261	0	
134637	20	0.00	2	3.05	30.80	0	-7	0	-277	-221	-7	
134746	20	0.00	2	2.70	30.80	0	-7	0	-292	-261	18	
134855	20	0.00	2	2.35	30.80	0	-8	0	-292	-223	3	
134965	20	0.00	2	2.44	30.80	0	-8	0	-267	-297	1	
135080	20	0.00	2	2.44	30.80	0	-8	0	-236	-386	-40	
135189	20	0.00	2	2.09	30.80	0	-8	0	-257	-403	-23	
135298	20	0.00	2	2.17	30.80	0	-8	0	-284	-354	-3	
135407	20	0.00	2	2.09	30.80	0	-8	0	-242	-331	-23	
135516	20	0.00	2	2.35	30.80	0	-8	0	-258	-318	-9	
135625	20	0.00	2	2.61	30.80	0	-7	0	-274	-379	-13	
135735	20	0.00	2	2.78	30.90	0	-8	0	-246	-274	2	
135844	20	0.00	2	2.44	30.80	0	-8	0	-260	-232	6	
135953	20	0.00	2	2.44	30.90	0	-7	0	-286	-268	-2	
136062	20	0.00	2	2.70	30.90	0	-8	0	-239	-305	-36	
136172	20	0.00	2	2.78	30.80	0	-8	0	-231	-229	-6	
136287	20	0.00	2	2.26	30.90	0	-8	0	-285	-285	12	
136396	20	0.00	2	2.00	30.80	0	-8	0	-284	-256	-25	
136505	20	0.00	2	2.52	30.90	0	-8	0	-247	-347	-34	
136614	20	0.00	2	2.00	30.90	0	-8	0	-274	-261	-30	
136724	20	0.00	2	2.00	30.90	0	-7	0	-268	-241	-9	
136832	20	0.00	2	1.91	30.90	0	-7	0	-269	-188	-1	
136942	20	0.00	2	2.17	30.90	0	-8	0	-269	-252	-21	
137051	20	0.00	2	2.35	30.90	0	-8	0	-251	-354	-29	
137161	20	0.00	2	1.91	30.90	0	-8	0	-260	-303	-6	
137269	20	0.00	2	2.35	30.90	0	-8	0	-294	-400	-7	
137430	20	0.00	2	1.91	30.90	0	-8	0	-256	-299	-7	
137539	20	0.00	2	2.26	30.90	0	-8	0	-263	-349	-19	
137647	20	0.00	2	2.61	30.90	0	-8	0	-259	-523	-64	
137757	20	0.00	2	2.35	30.90	0	-8	0	-232	-344	-36	
137865	20	0.00	2	2.00	30.90	0	-7	0	-260	-386	-26	
137975	20	0.00	2	1.83	30.90	0	-8	0	-286	-401	-26	
138085	20	0.00	2	2.17	30.90	0	-8	0	-312	-170	69	
138193	20	0.00	2	2.26	30.90	0	-8	0	-279	58	48	
138303	20	0.00	2	2.26	30.90	0	-7	0	-304	-238	-48	
138412	20	0.00	2	2.00	30.90	0	-7	0	-294	-142	-22	
138528	20	0.00	2	2.44	30.90	0	-8	0	-290	108	83	
138637	20	0.00	2	2.17	30.90	0	-8	0	-306	-147	58	
138745	20	0.00	2	2.44	30.90	0	-8	0	-203	-385	-122	
138855	20	0.00	2	2.09	30.90	0	-8	0	-221	-386	-85	
138964	20	0.00	2	2.26	30.90	0	-7	0	-264	-392	15	
139073	20	0.00	2	2.17	30.90	0	-8	0	-308	-449	21	
139182	20	0.00	2	2.17	30.90	0	-8	0	-200	-490	-73	
139292	20	0.00	2	2.26	30.90	0	-8	0	-223	-400	-104	
139401	20	0.00	2	2.52	30.90	0	-8	0	-336	-381	1	
139510	20	0.00	2	2.44	30.90	0	-8	0	-254	-10	53	
139619	20	0.00	2	2.61	30.90	0	-7	0	-214	-64	-27	
139735	20	0.00	2	2.61	30.90	0	-7	0	-279	-422	-15	
139843	20	0.00	2	2.44	30.90	0	-8	0	-266	-129	-11	
139952	20	0.00	2	2.17	30.90	0	-7	0	-243	-218	32	
140062	20	0.00	2	2.26	30.90	0	-7	0	-257	-579	-90	
140170	20	0.00	2	1.65	30.90	0	-8	0	-227	-600	-126	
140280	20	0.00	2	1.83	30.90	0	-7	0	-249	-183	21	
140390	20	0.00	2	2.00	30.90	0	-8	0	-285	-70	51	
140498	20	0.00	2	2.17	30.90	0	-8	0	-301	-326	-39	
140608	20	0.00	2	2.26	30.90	0	-8	0	-209	-250	-73	
140717	20	0.00	2	2.61	30.90	0	-8	0	-273	-213	2	
140833	20	0.00	2	1.65	30.90	0	-7	0	-264	-207	5	
140941	20	0.00	2	1.56	30.90	0	-8	0	-214	-369	-61	
141050	20	0.00	2	2.61	30.90	0	-8	0	-226	-555	-67	
141160	20	0.00	2	2.44	30.90	0	-8	0	-253	-348	-7	
141268	20	0.00	2	2.61	30.90	0	-8	0	-280	-228	-13	
141378	20	0.00	2	2.00	30.90	0	-8	0	-242	-427	-74	
141487	20	0.00	2	2.44	30.90	0	-8	0	-277	-383	-66	
141597	20	0.00	2	2.44	30.90	0	-8	0	-298	41	71	
141705	20	0.00	2	2.61	30.90	0	-8	0	-266	-73	72	
141815	20	0.00	2	2.26	30.90	0	-8	0	-293	-420	-104	
141924	20	0.00	2	2.26	30.90	0	-8	0	-248	-271	-36	
142039	20	0.00	2	2.26	30.90	0	-8	0	-281	106	143	
142148	20	0.00	2	2.17	30.90	0	-8	0	-304	-77	45	
142257	20	0.00	2	2.17	30.90	0	-7	0	-230	-374	-158	
142367	20	0.00	2	2.44	30.90	0	-8	0	-226	-383	-70	
142475	20	0.00	2	2.17	30.90	0	-8	0	-337	151	191	
142585	20	0.00	2	2.00	30.90	0	-8	0	-294	53	122	
142694	20	0.00	2	2.17	30.90	0	-8	0	-231	-380	-121	
142803	20	0.00	2	2.17	30.90	0	-8	0	-220	-415	-101	
142913	20	0.00	2	2.00	30.90	0	-8	0	-304	19	114	
143021	20	0.00	2	2.09	30.90	0	-8	0	-349	121	126	
143138	20	0.00	2	2.26	30.90	0	-8	0	-203	-339	-70	
143246	20	0.00	2	2.44	30.90	0	-8	0	-226	-449	-116	
143355	20	0.00	2	2.78	30.90	0	-7	0	-298	126	106	
143465	20	0.00	2	2.09	30.90	0	-8	0	-315	-39	153	
143573	20	0.00	2	2.26	30.90	0	-8	0	-228	-401	-68	
143683	20	0.00	2	2.35	30.90	0	-8	0	-193	-1022	-218	
143837	20	0.00	2	2.52	30.90	0	-7	0	-372	207	163	
143945	20	0.00	2	1.74	30.90	0	-8	0	-313	392	206	
144055	20	0.00	2	2.35	30.90	0	-8	0	-270	112	-19	
144164	20	0.00	2	2.35	30.90	0	-7	0	-239	-191	-52	
144280	20	0.00	2	2.17	30.90	0	-8	0	-318	-421	41	
144388	20	0.00	2	2.44	30.90	0	-8	0	-241	-74	61	
144497	20	0.00	2	2.52	30.90	0	-8	0	-249	-359	-88	
144606	20	0.00	2	2.70	30.90	0	-8	0	-316	-794	-114	
144716	20	0.00	2	2.52	30.90	0	-8	0	-88	-266	-55	
144825	20	0.00	2	2.70	30.90	0	-7	0	-299	-312	49	
144934	20	0.00	2	2.35	30.90	0	-7	0	-426	-510	5	
145044	20	0.00	2	2.61	30.90	0	-8	-1	-138	-238	-49	
145152	20	0.00	2	2.61	30.90	0	-8	0	-173	10	-43	
145262	20	0.00	2	1.91	30.90	0	-7	0	-417	-650	52	
145370	20	0.00	2	2.52	30.90	0	-8	-1	-315	-498	25	
145487	20	0.00	2	2.44	30.90	0	-8	0	-136	-42	-112	
145596	20	0.00	2	2.09	30.90	0	-7	0	-304	-505	-47	
145704	20	0.00	2	1.83	30.90	0	-8	0	-329	106	112	
145814	20	0.00	2	1.83	30.90	0	-8	0	-212	139	61	
145922	20	0.00	2	2.17	30.90	0	-8	0	-236	-562	-135	
146033	20	0.00	2	1.56	30.90	0	-7	0	-262	-491	-95	
146141	20	0.00	1	1.74	30.90	10	-15	-5	-1764	5369	-1309	
146251	20	0.00	1	2.00	30.90	-15	-16	15	-2333	32767	-551	
146360	20	0.00	3	8.11	30.80	-4	-16	3	6257	32767	-6232	
146469	40	0.00	8	30.49	30.40	-10	-16	1	5417	-7494	-2537	
146593	40	0.00	16	47.23	30.30	0	2	-1	-6324	-32768	5736	
146710	40	0.00	22	46.26	30.60	4	6	0	427	-32768	-5466	
146829	40	0.00	26	45.39	30.80	-7	6	9	20	-32768	-2341	
146946	40	0.00	31	48.63	30.80	0	4	0	4255	-32768	568	
147064	40	0.00	35	53.89	30.80	-2	5	-2	-101	-32768	-1043	
147183	40	0.00	40	57.58	30.80	-1	3	0	366	-32768	1814	
147301	40	0.00	45	64.60	30.60	0	4	0	344	-32768	1172	
147419	40	0.00	51	76.02	30.20	0	3	0	-1045	-32768	357	
147537	40	0.00	58	87.19	29.80	0	3	0	-1927	-32768	-741	
147662	40	0.00	65	91.95	29.80	0	3	1	-1200	-32768	-2118	
147781	40	0.00	70	89.66	30.10	0	3	0	-323	-32768	-2031	
147899	40	0.00	73	87.02	30.30	0	2	0	508	-32414	-1090	
148017	40	0.00	76	88.69	30.40	-1	2	0	451	-30780	-653	
148135	40	0.00	79	91.24	30.40	0	1	0	101	-30365	128	
148253	40	0.00	82	94.32	30.40	0	1	0	-27	-29606	686	
148372	40	0.00	85	97.23	30.40	0	1	0	-94	-28041	294	
148490	40	0.00	88	100.49	30.30	0	1	0	-354	-26947	229	
148609	40	0.00	91	103.84	30.30	0	1	0	-280	-24933	248	
148735	40	0.00	95	109.92	30.10	0	1	0	360	-23302	-40	
148855	40	0.00	99	115.83	29.90	0	1	0	364	-22370	-563	
148974	40	0.00	104	122.98	29.70	0	0	0	300	-21449	-515	
149094	40	0.00	109	129.97	29.50	0	0	0	322	-20080	-353	
149215	40	0.00	114	133.77	29.40	0	1	0	321	-19052	-333	
149337	40	0.00	118	135.53	29.40	0	1	0	394	-18085	-649	
149458	40	0.00	122	137.65	29.40	0	0	0	162	-17218	-1029	
149580	40	0.00	125	136.42	29.60	0	0	0	-294	-16480	-1273	
149701	40	0.00	127	135.27	29.70	0	0	0	-627	-15734	-1072	
149823	40	0.00	128	133.94	29.80	0	0	0	-686	-15123	-762	
149951	40	0.00	129	133.32	29.90	0	0	0	-673	-14247	-667	
150072	40	0.00	130	133.59	30.00	0	0	0	-722	-13781	-787	
150193	40	0.00	131	134.47	30.00	0	0	0	-1108	-13227	-738	
150315	40	0.00	131	135.36	30.00	0	0	0	-1472	-12546	-405	
150481	40	0.00	132	135.98	30.00	0	0	0	-2013	-11838	-65	
150602	40	0.00	133	137.13	30.00	0	0	0	-2196	-11576	477	
150724	40	0.00	134	138.45	30.00	0	0	0	-2364	-11361	953	
150846	40	0.00	135	138.89	30.00	0	0	0	-2433	-11347	1651	
150968	40	0.00	136	139.25	30.00	0	0	0	-2385	-11693	2353	
151096	40	0.00	137	140.13	30.00	0	0	0	-2215	-12123	3038	
151216	40	0.00	137	139.25	30.00	0	0	0	-1943	-12115	3683	
151338	40	0.00	138	140.40	30.00	0	0	0	-1610	-9405	4131	
151460	40	0.00	138	140.22	30.00	0	0	0	-1388	-6669	4415	
151581	40	0.00	138	140.04	30.00	0	0	0	-1509	-5519	4522	
151703	40	0.00	139	140.31	30.00	0	0	0	-1428	-11763	4449	
151824	40	0.00	139	140.13	30.00	0	0	0	-859	-9677	3663	
151945	40	0.00	139	140.57	30.00	-1	0	0	-550	5513	2254	
152066	40	0.00	139	140.49	30.00	-2	0	0	-1400	22182	564	
152195	40	0.00	139	139.25	30.10	-2	0	0	-1045	15627	-1931	
152316	40	0.00	139	139.51	30.00	-2	0	0	-168	-10314	-2708	
152438	40	0.00	139	138.36	30.10	-2	0	0	-796	-32225	-3342	
152560	40	0.00	139	137.83	30.00	-2	0	1	-1496	-11051	-2726	
152682	40	0.00	138	138.28	30.00	-2	0	0	714	27111	-543	
152803	40	0.00	138	136.77	30.10	-4	0	-1	-820	32767	2411	
152924	40	0.00	137	135.98	30.10	-4	0	-2	-4095	3280	5056	
153046	60	0.00	137	134.38	30.10	-4	0	-2	-4993	-15242	7392	
153171	60	0.00	137	137.21	30.10	-6	-1	0	455	-32768	5955	
153299	60	0.00	136	132.71	30.10	-1	-1	4	-1261	-32768	-622	
153420	60	0.00	136	136.77	29.80	5	0	3	-3401	-32768	3243	
153542	60	0.00	137	139.96	29.60	3	0	-5	2286	-32768	5030	
153664	60	0.00	135	128.90	30.10	-6	-1	-9	4989	-32768	-1439	
153785	60	0.00	133	125.37	30.20	-9	-1	2	-10731	-32768	-12460	
153906	60	0.00	133	134.03	29.70	15	-16	13	-32768	-32768	25020	
154028	60	0.00	133	132.71	29.60	-12	-12	-10	15756	2693	-16949	
154150	60	0.00	132	129.79	29.70	7	-16	7	28845	7767	-29552	
154278	60	0.00	131	128.82	29.70	4	-8	7	2984	12303	1210	
154400	60	0.00	131	129.79	29.70	0	-6	4	-21209	-10637	9287	
154521	60	0.00	131	131.73	29.50	0	-7	-1	-19556	-11542	6971	
154643	60	0.00	131	129.52	29.70	0	-8	-4	-3203	10235	-5954	
154765	60	0.00	130	128.73	29.60	3	-7	1	7953	9449	-3787	
154885	60	0.00	130	131.38	29.50	4	-9	2	4942	5190	7945	
155007	60	0.00	130	131.56	29.50	2	-8	2	-421	1831	13177	
155129	60	0.00	131	133.68	29.40	0	-9	0	-2344	2393	11786	
155251	60	0.00	137	161.47	27.90	2	-8	0	854	3090	11170	
155379	60	0.00	141	157.57	28.00	0	-7	2	-3158	2521	16877	
155500	60	0.00	139	129.26	29.60	-3	-8	2	-12091	6123	14428	
155622	60	0.00	136	128.20	29.60	-4	-7	1	-15517	-466	-1630	
155743	60	0.00	134	126.17	29.70	-1	-7	0	-14431	-555	-12454	
155864	60	0.00	141	170.87	27.60	-1	-7	0	-12951	-1130	-14314	
155986	60	0.00	137	120.25	29.90	0	-8	-1	-11054	-5078	-12054	
156108	60	0.00	133	114.86	30.20	-1	-8	-2	-5659	-4899	-13788	
156230	60	0.00	128	111.78	30.30	-2	-8	-2	-931	-3137	-18702	
156351	60	0.00	125	110.63	30.30	-1	-8	-2	5587	3337	-24165	
156480	60	0.00	122	110.45	30.30	2	-8	-3	17236	10032	-21190	
156601	60	0.00	120	112.92	30.10	4	-8	0	22204	5602	-7067	
156722	60	0.00	118	110.98	30.10	4	-7	1	17066	4929	5415	
156844	60	0.00	116	109.66	30.20	3	-7	1	12329	4259	15444	
156965	60	0.00	115	108.16	30.20	1	-7	1	9315	1819	17691	
157087	60	0.00	113	107.90	30.20	0	-8	3	2378	4562	15584	
157208	60	0.00	112	108.16	30.10	0	-8	2	-6686	12098	13018	
157330	60	0.00	111	108.69	30.10	0	-7	2	-14686	13736	11426	
157497	60	0.00	111	109.48	30.00	-2	-7	0	-16850	14018	560	
157625	60	0.00	110	107.72	30.10	-3	-8	0	-11405	16176	-13969	
157746	60	0.00	109	105.60	30.10	0	-7	-1	-5825	12827	-22016	
157868	60	0.00	108	105.25	30.10	1	-7	-2	1744	16365	-19031	
157990	60	0.00	108	106.92	30.00	4	-8	-3	11304	16777	-7459	
158111	60	0.00	108	110.45	29.80	3	-7	-2	18020	14750	6637	
158233	60	0.00	109	114.07	29.60	1	-7	0	17547	19100	15441	
158355	60	0.00	112	122.28	28.80	-1	-7	3	7427	23774	17158	
158475	70	0.00	111	110.28	29.70	-2	-8	3	-8709	26514	7337	
158600	70	0.00	111	107.90	29.80	0	-8	1	-17147	25909	-1013	
158733	70	0.00	109	104.99	29.90	0	-8	0	-16268	29678	-7234	
158853	70	0.00	108	100.84	30.10	0	-9	-4	-7216	30394	-12405	
158975	70	0.00	105	96.00	30.30	1	-8	-5	12397	32767	-10918	
159096	70	0.00	103	94.59	30.40	2	-7	-2	24097	32767	2236	
159216	70	0.00	101	92.56	30.40	0	-7	3	15117	32767	18876	
159337	70	0.00	99	91.24	30.40	-2	-8	4	-8002	32767	13830	
159456	70	0.00	97	91.68	30.40	-3	-8	1	-18359	28346	-3921	
159575	70	0.00	96	90.98	30.40	0	-7	0	-15219	30254	-15888	
159701	70	0.00	95	91.24	30.30	1	-8	-1	-6329	29621	-17861	
159821	70	0.00	94	91.68	30.30	3	-8	-3	5289	32767	-10702	
159941	70	0.00	94	96.44	30.00	4	-7	-3	17042	29815	5675	
160061	70	0.00	96	100.58	29.80	3	-6	0	14576	31112	22069	
160180	70	0.00	98	107.46	29.60	-2	-7	2	-2328	30838	24137	
160301	70	0.00	98	99.52	29.80	-5	-8	1	-14416	24584	5258	
160420	70	0.00	99	101.99	29.70	-2	-8	0	-13541	21521	-9692	
160541	70	0.00	98	97.76	29.80	0	-7	0	-9172	24022	-16165	
160661	70	0.00	97	92.39	30.00	1	-8	-1	-4789	22453	-15605	
160787	70	0.00	95	87.37	30.30	2	-8	-2	4802	28594	-9827	
160905	70	0.00	93	84.38	30.40	3	-8	-2	13336	27149	-219	
161025	70	0.00	91	83.06	30.40	3	-7	0	12836	30428	13779	
161144	70	0.00	89	81.39	30.40	0	-7	2	1684	28810	19833	
161264	70	0.00	87	81.04	30.40	-2	-8	1	-11628	32767	11144	
161384	70	0.00	86	80.42	30.40	-2	-8	0	-15110	32234	-2180	
161502	70	0.00	85	80.51	30.40	-2	-9	-1	-9665	32767	-13692	
161622	70	0.00	84	80.86	30.30	1	-8	-3	1361	32346	-17437	
161741	70	0.00	83	81.04	30.30	2	-8	-2	14020	32767	-10115	
161868	70	0.00	83	84.47	30.20	3	-8	0	15289	32767	6645	
161987	70	0.00	84	86.75	30.00	1	-7	2	3544	32767	16900	
162107	70	0.00	85	88.16	29.80	-1	-7	1	-11213	32767	12351	
162225	70	0.00	86	91.07	29.70	-2	-8	0	-16011	32767	-1058	
162345	70	0.00	86	89.31	29.80	-2	-8	-2	-8645	32767	-13642	
162465	70	0.00	85	81.39	30.10	-1	-8	-2	5017	32767	-17056	
162585	70	0.00	84	76.99	30.40	2	-7	-1	14210	32767	-7842	
162704	70	0.00	82	75.06	30.40	3	-8	1	11457	32767	6797	
162823	70	0.00	80	73.56	30.40	1	-7	3	-2313	32767	15846	
162949	70	0.00	78	72.95	30.40	-2	-8	1	-19584	32767	7176	
163068	70	0.00	77	73.47	30.40	-1	-8	-2	-17221	32767	-11028	
163188	70	0.00	77	73.74	30.30	2	-8	-5	1089	32767	-15570	
163308	70	0.00	77	78.22	30.10	3	-8	-2	12906	32767	-1378	
163427	70	0.00	85	120.16	28.30	2	-7	0	8206	32767	14189	
163547	70	0.00	84	80.86	29.80	0	-7	1	-7594	32767	18449	
163666	70	0.00	82	72.86	30.20	-3	-8	0	-19960	32767	2028	
163786	70	0.00	79	68.64	30.40	-2	-8	-3	-8066	32767	-18014	
163906	70	0.00	77	68.03	30.30	2	-7	-3	12586	32767	-13785	
164032	70	0.00	75	67.67	30.40	2	-7	0	14550	32767	6346	
164151	70	0.00	73	67.32	30.30	0	-7	1	-756	32767	15773	
164315	70	0.00	74	76.37	29.90	-2	-8	0	-17514	32767	262	
164434	70	0.00	75	79.54	29.70	-1	-8	-2	-8954	32767	-16003	
164554	70	0.00	74	71.37	30.00	1	-8	-2	9300	32767	-13655	
164673	70	0.00	72	65.30	30.30	3	-7	0	13636	32767	4373	
164794	70	0.00	70	62.93	30.40	1	-7	2	686	32767	16332	
164912	70	0.00	68	61.70	30.40	-2	-7	0	-16427	32767	8187	
165032	70	0.00	67	61.44	30.40	-3	-9	-2	-14790	32767	-11504	
165158	70	0.00	66	62.05	30.40	1	-8	-2	4342	32767	-16298	
165277	70	0.00	66	66.00	30.20	2	-8	0	13948	32767	-1469	
165397	70	0.00	67	74.09	29.70	1	-7	1	6456	32767	13126	
165515	70	0.00	69	74.35	29.70	-1	-7	2	-12328	32767	13165	
165635	70	0.00	68	63.99	30.10	-3	-8	0	-18904	32767	-6075	
165755	70	0.00	66	58.72	30.30	0	-8	-3	-1454	32767	-17768	
165874	70	0.00	64	58.02	30.40	2	-8	-1	13305	32767	-4773	
165994	70	0.00	63	56.96	30.40	1	-7	0	7795	32767	10974	
166112	70	0.00	61	57.23	30.30	0	-7	1	-6370	32767	14097	
166238	70	0.00	62	64.51	30.00	-2	-8	0	-18079	32767	-358	
166358	70	0.00	63	69.26	29.70	-1	-8	-3	-4408	32767	-17050	
166478	80	0.00	62	58.72	30.20	3	-8	-2	14126	32767	-7202	
