Ms	Code	A0	CA	MA	T	AX	AY	AZ	GX	GY	GZ
0	20	0.00	0	0.45	20.60	1	7	0	-523	-2	-15	
127	20	0.00	0	0.27	20.60	1	7	0	-310	-517	-62	
236	20	0.00	0	0.10	20.60	1	7	0	-322	-721	-91	
343	20	0.00	0	0.18	20.60	1	7	0	-142	-1166	-2	
451	20	0.00	0	0.53	20.60	1	7	0	-312	-549	-8	
559	20	0.00	0	-0.25	20.70	1	8	0	-412	-729	-24	
668	20	0.00	0	0.53	20.60	1	7	0	-344	328	-95	
775	20	0.00	0	0.62	20.70	1	7	0	-135	-147	-105	
883	20	0.00	0	0.27	20.70	1	7	0	-163	-103	71	
990	20	0.00	0	0.10	20.70	1	7	0	-373	-784	-16	
1098	20	0.00	0	-0.87	20.70	1	7	0	-264	-399	-114	
1215	20	0.00	0	-0.08	20.70	1	8	0	26	55	206	
1324	20	0.00	0	0.36	20.70	1	7	0	-308	-243	60	
1434	20	0.00	0	0.36	20.70	1	7	0	-302	-343	-33	
1542	20	0.00	0	0.36	20.70	1	8	0	-99	1386	228	
1651	20	0.00	0	0.01	20.70	1	8	0	-25	849	157	
1759	20	0.00	0	-0.60	20.70	1	7	0	-376	-1031	1	
1869	20	0.00	0	0.27	20.70	1	7	0	-112	-105	-78	
1978	20	0.00	0	-0.25	20.70	1	7	0	-382	-341	35	
2088	20	0.00	0	0.36	20.70	1	7	0	-338	-1085	-25	
2198	20	0.00	0	0.53	20.70	1	7	0	-150	80	-99	
2306	20	0.00	0	-0.08	20.70	1	7	0	-248	-337	73	
2423	20	0.00	0	-0.34	20.70	1	7	0	-330	-511	-40	
2532	20	0.00	0	-0.25	20.70	1	7	0	-119	163	-159	
2642	20	0.00	0	0.01	20.70	1	7	0	-235	-164	80	
2751	20	0.00	0	-0.34	20.70	1	7	0	-333	-926	28	
2861	20	0.00	0	-0.25	20.70	1	7	0	-525	1496	-254	
2971	20	0.00	0	0.10	20.70	-16	15	-9	-2701	1461	10763	
3079	20	0.00	0	0.27	20.70	0	8	0	-922	1965	690	
3189	20	0.00	0	0.36	20.70	-1	8	1	-709	-53	-249	
3297	20	0.00	0	-0.34	20.70	5	1	-12	-1676	228	288	
3407	20	0.00	0	-0.25	20.70	0	8	0	-175	2565	187	
3516	20	0.00	0	0.01	20.70	1	7	0	-348	-1506	50	
3623	20	0.00	0	0.10	20.70	0	8	0	281	799	-182	
3733	20	0.00	0	0.18	20.70	0	8	0	506	1787	-49	
3841	20	0.00	0	0.27	20.70	0	7	-2	-593	-189	-100	
3951	20	0.00	0	0.45	20.70	0	7	0	-929	-7812	-270	
4060	20	0.00	0	0.10	20.70	0	7	0	619	2798	-228	
4169	20	0.00	0	-0.25	20.70	0	8	0	-267	5746	-144	
4278	20	0.00	0	0.01	20.70	1	7	-1	-268	771	-415	
4387	20	0.00	0	0.36	20.70	0	7	0	-183	2247	-327	
4496	20	0.00	0	0.18	20.70	0	7	0	-188	66	8	
4605	20	0.00	0	0.27	20.70	0	8	0	-528	-1003	246	
4720	20	0.00	0	-0.08	20.70	1	8	0	-175	739	-159	
4830	20	0.00	0	0.18	20.70	0	7	0	-57	587	-129	
4939	20	0.00	0	0.36	20.70	1	7	0	-194	-1555	486	
5047	20	0.00	0	0.01	20.70	1	7	-1	-80	-1843	97	
5156	20	0.00	0	-0.34	20.70	0	7	0	-288	806	-120	
5267	20	0.00	0	-0.17	20.70	0	7	0	-409	-893	-55	
5376	20	0.00	0	0.36	20.70	1	7	0	-165	422	86	
5485	20	0.00	0	0.27	20.70	0	7	0	-149	175	178	
5593	20	0.00	0	0.45	20.70	1	8	0	-295	-424	14	
5753	20	0.00	0	0.27	20.70	2	5	-2	-447	-1477	-374	
5862	20	0.00	0	0.01	20.70	0	6	-1	-209	-1708	-97	
5978	20	0.00	0	0.45	20.70	0	7	0	-287	-6052	-143	
6087	20	0.00	0	0.18	20.70	1	8	0	-38	-609	-94	
6196	20	0.00	0	0.36	20.70	0	7	0	-438	-1076	81	
6305	20	0.00	0	0.18	20.70	1	6	0	-260	1456	292	
6413	20	0.00	0	0.01	20.70	1	7	0	322	1387	0	
6522	20	0.00	0	0.10	20.70	0	7	0	6	2158	9	
6630	20	0.00	0	-0.17	20.70	0	7	0	-286	1259	-37	
6741	20	0.00	0	-0.08	20.70	0	7	0	-355	-2996	-168	
6851	20	0.00	0	0.18	20.70	-1	7	-1	1520	6060	28	
6959	20	0.00	0	0.01	20.70	0	11	0	-1089	2307	-8	
7068	20	0.00	0	0.01	20.70	1	9	0	-360	3402	-209	
7183	20	0.00	0	0.27	20.70	2	6	-1	-150	2269	825	
7292	20	0.00	0	0.45	20.70	0	6	0	170	3069	127	
7402	20	0.00	0	0.45	20.70	0	6	0	-179	2611	-212	
7510	20	0.00	0	0.45	20.70	0	8	0	-52	881	49	
7619	20	0.00	0	0.71	20.70	0	8	1	-91	2990	427	
7728	20	0.00	0	0.27	20.70	0	6	0	-70	4226	-297	
7837	20	0.00	0	0.53	20.80	0	7	0	87	5524	36	
7945	20	0.00	0	0.71	20.70	1	6	0	-151	4816	-132	
8054	20	0.00	0	0.27	20.70	0	7	0	-112	3368	303	
8163	20	0.00	0	0.01	20.70	0	7	0	-402	1750	-636	
8272	20	0.00	0	0.88	20.70	0	7	0	-46	216	378	
8387	20	0.00	0	0.53	20.70	0	8	0	-395	2568	172	
8496	20	0.00	0	0.18	20.80	1	7	0	-194	3473	33	
8605	20	0.00	0	0.36	20.80	1	7	0	60	367	-1	
8713	20	0.00	0	0.71	20.80	0	7	0	-186	3488	-640	
8822	20	0.00	0	0.01	20.80	0	7	0	-399	288	-343	
8930	20	0.00	0	0.80	20.80	0	7	0	-220	239	141	
9040	20	0.00	0	0.45	20.80	0	7	0	-180	39	248	
9148	20	0.00	0	0.27	20.70	1	7	0	-237	1078	-198	
9257	20	0.00	0	0.45	20.80	0	7	0	-208	-57	-410	
9366	20	0.00	0	0.36	20.80	0	7	0	-149	-1576	-331	
9474	20	0.00	0	0.71	20.80	0	7	0	-264	-1351	-310	
9591	20	0.00	0	0.53	20.80	0	7	0	-595	-899	240	
9699	20	0.00	0	0.27	20.80	1	8	0	-199	-728	-155	
9808	20	0.00	0	-0.17	20.80	0	7	0	-384	116	188	
9919	20	0.00	0	0.62	20.80	0	7	0	-238	-1079	120	
10027	20	0.00	0	0.71	20.80	0	7	0	118	-677	-177	
10137	20	0.00	0	0.27	20.80	0	7	0	-303	479	151	
10246	20	0.00	0	0.45	20.80	0	7	0	-177	221	130	
10357	20	0.00	0	0.45	20.80	0	7	0	-417	44	115	
10466	20	0.00	0	0.53	20.80	0	7	0	-160	49	-37	
10576	20	0.00	0	0.36	20.80	0	7	0	-44	-326	-40	
10686	20	0.00	0	0.62	20.80	0	7	0	-426	-90	189	
10802	20	0.00	0	0.36	20.80	0	7	0	-393	-508	-2	
10912	20	0.00	0	0.53	20.80	0	7	0	-323	-353	87	
11022	20	0.00	0	0.36	20.80	0	7	0	-223	-341	-10	
11132	20	0.00	0	0.45	20.80	-1	15	-6	-4087	-30906	720	
11242	20	0.00	0	0.71	20.80	-1	5	1	380	-4492	1833	
11352	20	0.00	0	0.45	20.80	1	7	0	-639	-1030	-386	
11514	20	0.00	0	0.53	20.80	0	7	0	217	-2824	-299	
11624	20	0.00	0	0.62	20.80	0	7	0	-115	-1807	562	
11734	20	0.00	0	0.10	20.80	1	7	1	-500	-3509	-6	
11844	20	0.00	0	0.10	20.80	0	8	0	-151	-1680	20	
11960	20	0.00	0	0.18	20.80	0	7	0	-193	-2338	-217	
12070	20	0.00	0	0.10	20.80	0	8	0	-525	-2337	-535	
12181	20	0.00	0	0.01	20.80	0	8	1	-169	-2167	-148	
12290	20	0.00	0	-0.08	20.80	0	8	0	-26	-594	23	
12401	20	0.00	0	0.01	20.80	0	8	0	194	-1647	493	
12511	20	0.00	0	0.01	20.80	1	8	0	-369	-1484	-38	
12621	20	0.00	0	0.36	20.80	0	7	0	-128	-639	-132	
12730	20	0.00	0	0.01	20.80	0	8	0	45	-1621	319	
12840	20	0.00	0	-0.17	20.80	1	7	0	-384	-1978	60	
12952	20	0.00	0	0.18	20.80	0	8	0	-274	-3963	-316	
13061	20	0.00	0	-0.08	20.80	0	7	0	-73	-277	78	
13179	20	0.00	0	0.10	20.80	1	6	0	-210	-567	234	
13289	20	0.00	0	-0.34	20.80	0	10	0	-137	746	-190	
13400	20	0.00	0	0.01	20.80	1	7	0	-801	-3157	-127	
13510	20	0.00	0	-0.17	20.80	0	7	0	-200	1176	142	
13621	20	0.00	0	-0.69	20.80	0	7	0	-525	-5283	53	
13732	20	0.00	0	0.01	20.80	1	7	0	-120	767	-226	
13843	20	0.00	0	0.45	20.80	0	7	0	-404	-937	20	
13952	20	0.00	0	-0.78	20.80	0	7	0	-175	257	122	
14063	20	0.00	0	-0.60	20.80	0	7	0	-116	463	-188	
14173	20	0.00	0	-0.17	20.80	0	7	0	-386	-769	-111	
14291	20	0.00	0	0.10	20.80	0	7	0	-303	-289	86	
14402	20	0.00	0	-0.17	20.80	0	8	0	-97	743	8	
14512	20	0.00	0	0.27	20.80	0	7	0	-240	-439	25	
14622	20	0.00	0	-0.25	20.80	0	7	0	-424	-929	-29	
14733	20	0.00	0	-0.52	20.80	2	7	-1	20	511	-87	
14844	20	0.00	0	0.27	20.80	0	7	0	-136	531	-88	
14954	20	0.00	0	-0.34	20.80	0	7	0	-360	-690	1	
15064	20	0.00	0	-0.17	20.80	1	8	0	-179	-285	-139	
15176	20	0.00	0	-0.34	20.80	0	7	0	-66	1366	-54	
15287	20	0.00	0	-0.08	20.80	0	7	0	-288	-594	47	
15398	20	0.00	0	-0.43	20.80	1	7	0	-305	-389	-37	
15516	20	0.00	0	0.71	20.80	0	7	0	-157	332	-52	
15625	20	0.00	0	0.62	20.80	0	7	0	-248	-402	-36	
15736	20	0.00	0	0.36	20.80	0	8	0	-328	-555	-48	
15845	20	0.00	0	-0.60	20.80	0	7	0	-93	-6626	145	
15956	20	0.00	0	-0.08	20.80	1	8	-1	-420	3252	263	
16068	20	0.00	0	0.18	20.80	1	7	0	-87	-375	-203	
16177	20	0.00	0	0.18	20.80	0	7	0	-142	65	127	
16287	20	0.00	0	0.10	20.80	1	8	0	-502	-2367	25	
16396	20	0.00	0	-0.17	20.80	0	7	0	-251	-987	-93	
16508	20	0.00	0	0.27	20.80	0	7	0	-140	52	38	
16618	20	0.00	0	0.27	20.80	0	7	0	-243	343	63	
16734	20	0.00	0	0.10	20.80	0	7	0	-302	-760	-77	
16844	20	0.00	0	0.01	20.80	0	7	0	-151	1	8	
16953	20	0.00	0	0.45	20.80	0	7	0	-257	-73	46	
17063	20	0.00	0	0.01	20.90	0	7	0	-231	-198	1	
17225	20	0.00	0	0.45	20.80	0	7	0	-209	-192	-3	
17335	20	0.00	0	0.01	20.90	0	7	0	-269	-340	47	
17445	20	0.00	0	0.10	20.80	0	7	0	-239	-130	-44	
17555	20	0.00	0	0.45	20.90	0	7	0	-184	-155	0	
17665	20	0.00	0	0.18	20.90	0	7	0	-253	-257	0	
17775	20	0.00	0	0.01	20.90	0	7	0	-243	-200	-66	
17884	20	0.00	0	-0.34	20.90	0	7	0	-226	-323	-3	
18002	20	0.00	0	0.36	20.90	0	7	0	-247	-242	-23	
18112	20	0.00	0	-0.25	20.90	0	7	0	-262	-307	-1	
18223	20	0.00	0	0.27	20.90	0	7	0	-237	-236	-53	
18333	20	0.00	0	-0.08	20.90	0	7	0	-221	-211	-18	
18443	20	0.00	0	-0.08	20.90	0	7	0	-264	-352	8	
18554	20	0.00	0	0.18	20.90	0	7	0	-217	-200	-45	
18665	20	0.00	0	0.18	20.90	0	7	0	-208	-82	-33	
18774	20	0.00	0	0.45	20.90	0	7	0	-286	81	43	
18884	20	0.00	0	-0.17	20.90	1	7	0	274	1493	220	
18995	20	0.00	0	0.01	20.90	1	8	0	-275	-2454	-16	
19105	20	0.00	0	-0.52	20.90	0	7	0	-216	-956	28	
19223	20	0.00	0	0.18	20.90	0	7	0	-232	-370	-11	
19333	20	0.00	0	0.01	20.90	0	8	0	-197	-417	53	
19443	20	0.00	0	-0.08	20.90	0	7	0	-278	-189	-33	
19553	20	0.00	0	0.01	20.90	0	7	0	-282	-210	7	
19664	20	0.00	0	0.36	20.90	0	7	0	-107	54	-12	
19774	20	0.00	0	-0.25	20.90	0	7	0	-225	-236	-15	
19884	20	0.00	0	0.27	20.90	0	7	0	-318	-423	-50	
19994	20	0.00	0	-0.43	20.90	0	7	0	-176	-51	-12	
20105	20	0.00	0	0.18	20.90	0	7	0	-129	174	-61	
20215	20	0.00	0	0.10	20.90	0	7	0	-331	-756	17	
20332	20	0.00	0	0.01	20.90	0	7	0	-191	-145	-29	
20441	20	0.00	0	-0.25	20.90	0	7	0	-140	46	-27	
20552	20	0.00	0	0.01	20.90	0	7	0	-300	-586	51	
20662	20	0.00	0	0.36	20.90	0	7	0	-255	-368	-41	
20772	20	0.00	0	-0.52	20.90	0	7	0	-141	70	-63	
20883	20	0.00	0	0.45	20.90	0	7	0	-253	-369	5	
20993	20	0.00	0	-0.08	20.90	0	7	0	-291	-408	-7	
21104	20	0.00	0	-0.34	20.90	0	7	0	-186	-192	-22	
21215	20	0.00	0	0.10	20.90	0	7	0	-258	-275	-18	
21325	20	0.00	0	0.71	20.90	0	7	0	-273	-1197	0	
21434	20	0.00	0	0.45	20.90	1	6	0	-617	-3956	-114	
21551	20	0.00	0	0.27	20.90	0	7	0	-151	-298	100	
21662	20	0.00	0	0.36	20.90	0	7	0	-238	-887	158	
21771	20	0.00	0	0.27	20.90	0	7	0	-130	-261	-105	
21881	20	0.00	0	-0.08	20.90	0	7	0	-191	195	-19	
21992	20	0.00	0	0.10	20.90	1	7	0	-326	-506	23	
22102	20	0.00	0	-0.17	20.90	0	7	0	-158	188	-39	
22213	20	0.00	0	-0.43	20.90	0	7	0	-235	-87	33	
22323	20	0.00	0	-0.52	20.90	1	7	0	-303	-789	-34	
22435	20	0.00	0	0.10	20.90	0	7	0	-222	4	-43	
22544	20	0.00	0	0.01	20.90	1	7	0	-158	1226	17	
22654	20	0.00	0	0.01	20.90	0	7	0	-208	1177	-117	
22771	20	0.00	0	-0.34	20.90	0	7	0	-317	-815	26	
22882	20	0.00	0	-0.25	20.90	1	7	0	-364	-892	-117	
23045	20	0.00	0	-0.08	20.90	1	7	0	-21	-383	14	
23156	20	0.00	0	-0.52	21.00	0	7	0	-284	-895	-124	
23266	20	0.00	0	-0.08	20.90	0	7	0	-416	-1596	-9	
23378	20	0.00	0	-0.52	21.00	0	7	0	-94	571	-45	
23489	20	0.00	0	0.36	20.90	0	7	0	-215	-669	33	
23598	20	0.00	0	-0.08	21.00	1	7	0	-366	-1096	-103	
23710	20	0.00	0	0.01	21.00	0	7	0	-215	215	-44	
23819	20	0.00	0	0.10	21.00	0	7	0	-170	280	130	
23936	20	0.00	0	0.18	21.00	1	7	0	-249	-92	-120	
24047	20	0.00	0	0.10	21.00	0	7	0	-332	-1260	-62	
24156	20	0.00	0	0.45	21.00	1	7	0	-159	729	103	
24266	20	0.00	0	0.36	21.00	0	7	0	-161	100	-75	
24375	20	0.00	0	0.45	21.00	0	7	0	-277	-412	-48	
24486	20	0.00	0	0.27	21.00	0	7	0	-282	-1147	14	
24596	20	0.00	0	0.45	21.00	0	7	0	-141	1006	8	
24705	20	0.00	0	0.27	21.00	0	7	0	-230	-295	-2	
24816	20	0.00	0	0.36	21.00	0	7	0	-284	-573	-44	
24925	20	0.00	0	0.36	21.00	0	7	0	-301	-875	7	
25035	20	0.00	0	-0.08	21.00	0	7	0	-217	-427	2	
25153	20	0.00	0	0.27	21.00	0	7	0	-242	-82	-43	
25262	20	0.00	0	0.01	21.00	0	7	0	-229	-360	4	
25372	20	0.00	0	-0.52	21.00	0	7	0	-191	-157	8	
25483	20	0.00	0	-0.08	21.00	0	7	0	-246	-309	-17	
25594	20	0.00	0	0.18	21.00	0	7	0	-277	-413	-28	
25704	20	0.00	0	-0.25	21.00	0	7	0	-217	-138	12	
25815	20	0.00	0	-0.17	21.00	0	7	0	-209	-114	-13	
25927	20	0.00	0	-0.34	21.00	0	7	0	-261	-325	-13	
26037	20	0.00	0	0.01	21.00	0	7	0	-219	-233	-5	
26147	20	0.00	0	0.27	21.00	0	7	0	-209	-184	-3	
26256	20	0.00	0	0.10	21.00	0	7	0	-272	-297	-23	
26373	20	0.00	0	0.01	21.00	0	7	0	-249	-323	-46	
26483	20	0.00	0	0.01	21.00	0	7	0	-207	-198	6	
26593	20	0.00	0	0.10	21.00	0	7	0	-227	-265	-13	
26703	20	0.00	0	0.27	21.00	0	7	0	-250	-307	-21	
26812	20	0.00	0	0.36	21.00	0	7	0	-199	-166	-10	
26923	20	0.00	0	0.18	21.00	0	7	0	-212	-230	-5	
27033	20	0.00	0	0.01	21.00	0	7	0	-265	-349	-22	
27142	20	0.00	0	-0.34	21.00	0	7	0	-223	-192	-23	
27253	20	0.00	0	0.36	21.00	0	7	0	-201	-199	-9	
27363	20	0.00	0	-0.08	21.00	0	7	0	-268	-291	-16	
27474	20	0.00	0	0.18	21.00	0	7	0	-235	-248	-33	
27591	20	0.00	0	-0.60	21.00	0	7	0	-188	-214	-2	
27701	20	0.00	0	-0.17	21.00	0	7	0	-253	-262	-6	
27813	20	0.00	0	0.01	21.00	0	8	0	-234	-266	3	
27923	20	0.00	0	-0.17	21.00	0	7	0	-183	-230	-4	
28033	20	0.00	0	-0.43	21.00	0	7	0	-248	-242	-1	
28145	20	0.00	0	-0.08	21.00	0	7	0	-262	-318	-29	
28255	20	0.00	0	-0.43	21.00	0	7	0	-202	-167	-23	
28367	20	0.00	0	-0.60	21.00	0	7	0	-254	-243	-4	
28478	20	0.00	0	-0.25	21.00	0	7	0	-235	-290	-25	
28588	20	0.00	0	-0.60	21.00	0	7	0	-239	-267	-31	
28757	20	0.00	0	0.01	21.00	0	7	0	-237	-203	14	
28867	20	0.00	0	-0.17	21.00	0	7	0	-247	-282	-9	
28978	20	0.00	0	0.18	21.00	0	7	0	-212	-184	-29	
29088	20	0.00	0	0.45	21.00	0	7	0	-199	-182	-5	
29197	20	0.00	0	-0.25	21.00	0	7	0	-246	-276	-38	
29309	20	0.00	0	-0.08	21.00	0	7	0	-245	-241	-17	
29420	20	0.00	0	-0.25	21.00	0	7	0	-211	-235	0	
29530	20	0.00	0	-0.52	21.00	0	7	0	-262	-270	-25	
29642	20	0.00	0	0.10	21.00	0	7	0	-238	-273	-23	
29751	20	0.00	0	-0.08	21.00	0	7	0	-219	-152	-21	
29863	20	0.00	0	-0.17	21.00	0	7	0	-228	-211	-19	
29981	20	0.00	0	0.10	21.00	0	7	0	-274	-274	-20	
30090	20	0.00	0	-0.34	21.00	0	7	0	-221	-204	-19	
30201	20	0.00	0	-0.08	21.00	0	7	0	-224	-247	-30	
30313	20	0.00	0	0.18	21.00	0	7	0	-249	-257	-10	
30422	20	0.00	0	0.01	21.00	0	7	0	-241	-200	-6	
30532	20	0.00	0	0.27	21.00	0	7	0	-219	-220	-11	
30641	20	0.00	0	-0.34	21.00	0	7	0	-252	-288	-30	
30753	20	0.00	0	0.53	21.00	0	7	0	-210	-263	-14	
30862	20	0.00	0	-0.17	21.00	0	7	0	-200	-229	-20	
30973	20	0.00	0	0.01	21.00	0	7	0	-254	-256	14	
31084	20	0.00	0	0.18	21.00	0	7	0	-264	-269	-39	
31191	20	0.00	0	-0.08	21.00	0	7	0	-216	-228	-15	
31303	20	0.00	0	-0.17	21.00	0	7	0	-235	-213	-2	
31413	20	0.00	0	0.36	21.00	0	7	0	-259	-241	-29	
31523	20	0.00	0	-0.17	21.00	0	7	0	-210	-188	-10	
31635	20	0.00	0	0.18	21.00	0	7	0	-212	-237	-14	
31744	20	0.00	0	0.45	21.00	0	7	0	-249	-328	-18	
31855	20	0.00	0	0.18	21.10	0	7	0	-240	-256	-25	
31964	20	0.00	0	0.36	21.00	0	7	0	-234	-270	26	
32074	20	0.00	0	0.27	21.10	0	7	0	-235	-256	-22	
32184	20	0.00	0	-0.87	21.00	0	7	0	-237	-284	-26	
32301	20	0.00	0	0.80	21.10	0	7	0	-224	-202	-7	
32412	20	0.00	0	0.18	21.10	0	7	0	-238	-240	-30	
32521	20	0.00	0	0.01	21.00	0	7	0	-217	-251	-24	
32631	20	0.00	0	-0.25	21.10	0	7	0	-229	-229	3	
32741	20	0.00	0	-0.17	21.10	0	7	0	-239	-255	4	
32853	20	0.00	0	-0.25	21.10	0	7	0	-257	-239	-27	
32964	20	0.00	0	0.10	21.10	0	7	0	-238	-237	-20	
33073	20	0.00	0	0.01	21.10	0	7	0	-240	-271	3	
33184	20	0.00	0	0.18	21.10	0	7	0	-229	-261	-13	
33293	20	0.00	0	0.01	21.10	0	7	0	-231	-224	-8	
33403	20	0.00	0	-0.25	21.10	0	7	0	-224	-185	-19	
33522	20	0.00	0	0.10	21.10	0	7	0	-250	-229	-29	
33631	20	0.00	0	0.27	21.10	0	7	0	-260	-234	-5	
33741	20	0.00	0	-0.34	21.10	0	7	0	-254	-252	-16	
33852	20	0.00	0	0.27	21.10	0	7	0	-248	-249	-32	
33962	20	0.00	0	0.18	21.10	0	7	0	-226	-229	-1	
34072	20	0.00	0	0.53	21.10	0	7	0	-229	-223	-17	
34181	20	0.00	0	0.36	21.10	0	7	0	-242	-242	3	
34292	20	0.00	0	-0.60	21.10	0	7	0	-237	-208	-12	
34402	20	0.00	0	-0.25	21.10	0	7	0	-205	-194	-18	
34513	20	0.00	0	0.10	21.10	0	7	0	-254	-231	-37	
34675	20	0.00	0	-0.43	21.10	0	7	0	-220	-194	-22	
34793	20	0.00	0	-0.34	21.10	0	7	0	-242	-234	-6	
34903	20	0.00	0	-0.34	21.10	0	7	0	-238	-210	-25	
35014	20	0.00	0	-0.17	21.10	0	7	0	-254	-276	-12	
35125	20	0.00	0	-0.25	21.10	0	7	0	-236	-231	-20	
35236	20	0.00	0	-0.34	21.10	0	7	0	-234	-290	0	
35348	20	0.00	0	-0.17	21.10	0	7	0	-254	-290	-5	
35459	20	0.00	0	-0.17	21.10	0	7	0	-222	-238	-39	
35570	20	0.00	0	-0.08	21.10	0	7	0	-241	-233	34	
35680	20	0.00	0	0.27	21.10	0	7	0	-233	-171	0	
35791	20	0.00	0	-0.34	21.10	0	7	0	-218	-178	-30	
35908	20	0.00	0	-0.52	21.10	0	7	0	-227	-280	-13	
36019	20	0.00	0	-0.52	21.10	0	7	0	-230	-297	-12	
36130	20	0.00	0	-0.17	21.10	0	7	0	-234	-277	-1	
36241	20	0.00	0	-0.69	21.10	0	7	0	-204	-253	-19	
36352	20	0.00	0	-0.60	21.10	0	7	0	-224	-226	-8	
36463	20	0.00	0	0.18	21.10	0	7	0	-240	-302	-9	
36572	20	0.00	0	0.01	21.10	0	7	0	-248	-280	-32	
36683	20	0.00	0	-0.25	21.10	0	7	0	-211	-202	-27	
36793	20	0.00	0	-0.08	21.10	0	7	0	-249	-234	-10	
36904	20	0.00	0	0.27	21.10	0	7	0	-222	-275	18	
37015	20	0.00	0	-0.34	21.10	0	7	0	-226	-241	-31	
37132	20	0.00	0	0.62	21.10	0	7	0	-221	-261	-15	
37242	20	0.00	0	-0.69	21.10	0	7	0	-234	-221	-27	
37354	20	0.00	0	0.10	21.10	0	7	0	-206	-209	-36	
37463	20	0.00	0	-0.43	21.10	0	7	0	-245	-246	-3	
37574	20	0.00	0	0.45	21.10	0	7	0	-238	-360	-13	
37684	20	0.00	0	-0.34	21.10	0	7	0	-226	-292	-22	
37795	20	0.00	0	0.01	21.10	0	7	0	-216	-304	0	
37904	20	0.00	0	-0.25	21.10	0	7	0	-256	-249	-29	
38016	20	0.00	0	-0.25	21.10	0	7	0	-209	-275	-33	
38127	20	0.00	0	0.01	21.10	0	7	0	-222	-187	-11	
38243	20	0.00	0	-0.69	21.10	0	7	0	-255	-289	-9	
38354	20	0.00	0	-0.43	21.10	0	7	0	-252	-278	-34	
38465	20	0.00	0	-0.34	21.10	0	7	0	-225	-302	-10	
38576	20	0.00	0	-0.34	21.10	0	7	0	-214	-177	-25	
38687	20	0.00	0	0.18	21.20	0	7	0	-244	-265	-3	
38796	20	0.00	0	-0.08	21.10	0	7	0	-221	-168	-4	
38908	20	0.00	0	-0.08	21.10	0	7	0	-192	-170	-12	
39019	20	0.00	0	0.10	21.10	0	7	0	-254	-310	-21	
39128	20	0.00	0	0.18	21.10	0	7	0	-251	-342	-33	
39239	20	0.00	0	0.01	21.20	0	7	0	-222	-169	-11	
39349	20	0.00	0	0.27	21.10	0	7	0	-217	-228	-3	
39465	20	0.00	0	0.53	21.20	0	7	0	-249	-268	-40	
39576	20	0.00	0	0.27	21.20	0	7	0	-219	-178	-13	
39685	20	0.00	0	0.01	21.20	0	7	0	-228	-208	-24	
39795	20	0.00	0	0.27	21.20	0	7	0	-224	-325	-17	
39905	20	0.00	0	0.10	21.20	0	7	0	-235	-305	-22	
40015	20	0.00	0	0.18	21.20	0	7	0	-208	-267	-11	
40124	20	0.00	0	0.01	21.20	0	7	0	-231	-268	-22	
40234	20	0.00	0	0.18	21.20	0	7	0	-243	-272	13	
40397	20	0.00	0	0.36	21.20	0	7	0	-238	-241	-17	
40506	20	0.00	0	0.27	21.20	0	7	0	-260	-274	-29	
40616	20	0.00	0	0.01	21.20	0	7	0	-249	-243	-20	
40733	20	0.00	0	0.45	21.20	0	7	0	-204	-231	-30	
40842	20	0.00	0	0.88	21.20	0	7	0	-219	-225	-1	
40953	20	0.00	0	0.53	21.20	0	7	0	-239	-291	-33	
41062	20	0.00	0	0.80	21.20	0	7	0	-242	-230	-2	
41173	20	0.00	0	0.18	21.20	0	7	0	-232	-248	-11	
41283	20	0.00	0	0.71	21.20	0	7	0	-223	-251	15	
41392	20	0.00	0	0.45	21.20	0	7	0	-239	-274	10	
41503	20	0.00	0	-0.08	21.20	0	7	0	-231	-255	-31	
41613	20	0.00	0	0.53	21.20	0	8	0	-251	-290	2	
41723	20	0.00	0	-0.17	21.20	0	7	0	-245	-236	-13	
41841	20	0.00	0	0.18	21.20	0	7	0	-221	-207	-21	
41950	20	0.00	0	0.27	21.20	0	7	0	-227	-289	-14	
42061	20	0.00	0	0.10	21.20	0	7	0	-235	-286	-24	
42170	20	0.00	0	-0.25	21.20	0	7	0	-235	-229	-27	
42281	20	0.00	0	0.10	21.20	0	7	0	-241	-301	-7	
42392	20	0.00	0	0.01	21.20	0	7	0	-253	-238	-31	
42501	20	0.00	0	0.36	21.20	0	7	0	-206	-213	0	
42611	20	0.00	0	0.18	21.20	0	7	0	-232	-244	23	
42720	20	0.00	0	0.18	21.20	0	7	0	-253	-311	-9	
42831	20	0.00	0	-0.25	21.20	0	7	0	-225	-292	-10	
42942	20	0.00	0	0.27	21.20	0	7	0	-201	-256	12	
43058	20	0.00	0	0.53	21.20	0	7	0	-244	-214	-34	
43169	20	0.00	0	0.18	21.20	0	7	0	-243	-228	-2	
43278	20	0.00	0	0.62	21.20	0	7	0	-234	-198	-33	
43388	20	0.00	0	0.36	21.20	0	7	0	-249	-306	-34	
43499	20	0.00	0	0.36	21.20	0	7	0	-228	-289	-4	
43608	20	0.00	0	0.53	21.20	0	7	0	-197	-211	6	
43718	20	0.00	0	0.71	21.20	0	7	0	-222	-208	-25	
43827	20	0.00	0	-0.08	21.20	0	7	0	-238	-211	6	
43939	20	0.00	0	0.88	21.20	0	7	0	-204	-183	-32	
44048	20	0.00	0	0.97	21.20	0	7	0	-250	-194	-37	
44158	20	0.00	0	0.62	21.20	0	7	0	-256	-314	0	
44275	20	0.00	0	-0.08	21.20	0	7	0	-195	-201	-16	
44386	20	0.00	0	0.45	21.20	0	7	0	-236	-234	2	
44496	20	0.00	0	-0.25	21.20	0	7	0	-253	-255	-9	
44607	20	0.00	0	-0.08	21.20	0	7	0	-220	-207	-29	
44718	20	0.00	0	-0.08	21.20	0	7	0	-220	-238	8	
44829	20	0.00	0	0.53	21.20	0	7	0	-243	-284	-42	
44939	20	0.00	0	0.18	21.20	0	7	0	-246	-245	-26	
45049	20	0.00	0	0.18	21.20	0	7	0	-219	-229	8	
45158	20	0.00	0	-0.08	21.20	0	7	0	-248	-235	-12	
45270	20	0.00	0	0.71	21.20	0	7	0	-245	-272	-16	
45380	20	0.00	0	0.53	21.20	0	7	0	-215	-211	-11	
45496	20	0.00	0	0.27	21.20	0	7	0	-223	-215	-5	
45606	20	0.00	0	-0.25	21.20	0	7	0	-259	-284	-42	
45717	20	0.00	0	0.10	21.20	0	7	0	-225	-195	9	
45827	20	0.00	0	0.10	21.20	0	7	0	-207	-171	6	
45937	20	0.00	0	0.18	21.20	0	7	0	-247	-287	-37	
46099	20	0.00	0	0.36	21.20	0	7	0	-215	-206	-8	
46208	20	0.00	0	0.01	21.20	0	7	0	-245	-226	-16	
46318	20	0.00	0	0.62	21.20	0	7	0	-263	-284	-26	
46428	20	0.00	0	0.18	21.20	0	7	0	-216	-228	-29	
46538	20	0.00	0	0.27	21.20	0	7	0	-224	-209	-11	
46655	20	0.00	0	0.01	21.20	0	7	0	-246	-233	-36	
46764	20	0.00	0	-0.25	21.20	0	7	0	-218	-242	-11	
46876	20	0.00	0	0.01	21.20	0	7	0	-207	-206	-4	
46985	20	0.00	0	0.18	21.20	0	7	0	-252	-281	-19	
47096	20	0.00	0	0.53	21.20	0	7	0	-254	-265	-3	
47205	20	0.00	0	0.18	21.20	0	7	0	-224	-261	-4	
47315	20	0.00	0	-0.43	21.20	0	7	0	-252	-257	-37	
47426	20	0.00	0	0.10	21.20	0	7	0	-251	-249	-8	
47536	20	0.00	0	0.01	21.20	0	7	0	-223	-165	3	
47646	20	0.00	0	0.10	21.20	0	7	0	-240	-273	-35	
47755	20	0.00	0	-0.25	21.20	0	7	0	-224	-215	-18	
47873	20	0.00	0	-0.60	21.20	0	7	0	-253	-278	16	
47984	20	0.00	0	0.10	21.20	0	7	0	-252	-227	-29	
48094	20	0.00	0	0.01	21.20	0	7	0	-250	-299	-12	
48205	20	0.00	0	-0.25	21.20	0	7	0	-206	-219	11	
48315	20	0.00	0	0.10	21.20	0	7	0	-209	-197	-22	
48425	20	0.00	0	0.18	21.20	0	7	0	-253	-306	-22	
48535	20	0.00	0	0.01	21.20	0	7	0	-215	-266	-43	
48645	20	0.00	0	0.01	21.20	0	7	0	-222	-237	-17	
48755	20	0.00	0	0.01	21.30	0	7	0	-260	-281	-16	
48864	20	0.00	0	0.18	21.20	0	7	0	-248	-267	-15	
48975	20	0.00	0	0.01	21.20	0	7	0	-213	-216	13	
49091	20	0.00	0	-0.25	21.20	0	7	0	-225	-246	-13	
49202	20	0.00	0	0.01	21.30	0	7	0	-250	-281	-21	
49312	20	0.00	0	0.18	21.20	0	7	0	-222	-180	29	
49421	20	0.00	0	-0.43	21.20	0	7	0	-228	-228	-16	
49533	20	0.00	0	0.18	21.20	0	7	0	-250	-316	-20	
49643	20	0.00	0	0.01	21.30	0	7	0	-223	-234	-10	
49752	20	0.00	0	-0.17	21.20	0	8	0	-220	-285	12	
49864	20	0.00	0	0.10	21.30	0	7	0	-254	-389	-27	
49973	20	0.00	0	-0.08	21.30	0	7	0	-224	-300	-8	
50085	20	0.00	0	0.01	21.30	0	7	0	-192	-216	-10	
50195	20	0.00	0	0.45	21.30	0	7	0	-229	-321	-26	
50311	20	0.00	0	0.36	21.20	0	7	0	-233	-267	-31	
50421	20	0.00	0	0.27	21.20	0	7	0	-187	-187	-7	
50530	20	0.00	0	-0.69	21.20	0	7	0	-240	-283	-28	
50642	20	0.00	0	-0.08	21.30	0	7	0	-274	-306	6	
50753	20	0.00	0	-0.34	21.30	0	7	0	-221	-183	0	
50863	20	0.00	0	-0.69	21.30	0	7	0	-225	-205	-29	
50975	20	0.00	0	0.27	21.30	0	7	0	-254	-296	-27	
51084	20	0.00	0	-0.43	21.30	0	7	0	-223	-173	-9	
51195	20	0.00	0	0.10	21.30	0	7	0	-219	-225	-41	
51306	20	0.00	0	-0.17	21.30	0	7	0	-250	-300	-3	
51422	20	0.00	0	-0.25	21.30	0	7	0	-240	-229	-28	
51534	20	0.00	0	-0.60	21.30	0	7	0	-236	-182	-20	
51644	20	0.00	0	0.01	21.30	0	7	0	-251	-270	-4	
51806	20	0.00	0	-0.08	21.30	0	7	0	-249	-272	-14	
51918	20	0.00	0	-0.25	21.30	0	7	0	-220	-220	-30	
52028	20	0.00	0	-0.17	21.30	0	7	0	-245	-282	-25	
52140	20	0.00	0	-0.60	21.30	0	7	0	-248	-240	-4	
52251	20	0.00	0	-0.08	21.30	0	7	0	-239	-238	-11	
52361	20	0.00	0	0.18	21.30	0	7	0	-249	-263	-22	
52472	20	0.00	0	-0.08	21.30	0	7	0	-246	-258	4	
52582	20	0.00	0	0.10	21.30	0	7	0	-217	-251	-20	
52699	20	0.00	0	-0.17	21.30	0	7	0	-247	-274	10	
52810	20	0.00	0	-0.60	21.30	0	7	0	-236	-281	-25	
52920	20	0.00	0	-0.17	21.30	0	7	0	-228	-284	-8	
53032	20	0.00	0	-0.25	21.30	0	7	0	-246	-228	-14	
53143	20	0.00	0	-0.69	21.30	0	7	0	-219	-210	-17	
53253	20	0.00	0	0.18	21.30	0	7	0	-241	-222	-16	
53364	20	0.00	0	0.01	21.30	0	7	0	-250	-268	-21	
53473	20	0.00	0	0.10	21.30	0	7	0	-238	-239	-27	
53583	20	0.00	0	-0.25	21.30	0	7	0	-226	-223	0	
53695	20	0.00	0	-0.25	21.30	0	7	0	-223	-204	-15	
53812	20	0.00	0	0.10	21.30	0	7	0	-239	-299	1	
53922	20	0.00	0	-0.25	21.30	0	7	0	-232	-237	-14	
54033	20	0.00	0	-0.25	21.30	0	7	0	-260	-279	1	
54144	20	0.00	0	-0.08	21.30	0	7	0	-239	-244	4	
54255	20	0.00	0	1.23	21.30	0	7	0	-239	-246	7	
54365	20	0.00	0	1.41	21.30	0	7	0	-202	-226	-24	
54475	20	0.00	0	0.88	21.30	0	7	0	-239	-218	-12	
54584	20	0.00	0	1.23	21.30	0	7	0	-259	-291	0	
54694	20	0.00	0	1.06	21.30	0	7	0	-192	-226	-3	
54805	20	0.00	0	1.23	21.30	0	7	0	-224	-242	-7	
54914	20	0.00	0	0.88	21.30	0	7	0	-386	-1584	-544	
55031	20	0.00	0	1.14	21.30	0	8	-1	465	3333	112	
55140	20	0.00	0	0.97	21.30	0	8	0	-491	-3412	-151	
55250	20	0.00	1	1.49	21.30	2	8	0	-518	-2420	-1666	
55361	20	0.00	0	0.88	21.30	1	8	0	-1114	-2942	-2885	
55470	20	0.00	1	1.23	21.30	-3	8	5	-1070	-9089	-2482	
55581	20	0.00	1	1.41	21.30	-1	7	0	-343	444	-246	
55691	20	0.00	1	1.06	21.30	1	7	0	616	6984	1082	
55801	20	0.00	1	1.14	21.30	-2	7	0	-554	-2158	181	
55912	20	0.00	1	1.06	21.30	0	8	0	-806	-6223	-66	
56021	20	0.00	1	0.88	21.30	0	8	0	-372	-47	956	
56131	20	0.00	1	0.97	21.30	1	7	0	796	7476	1701	
56247	20	0.00	0	0.80	21.30	0	7	0	402	3275	265	
56357	20	0.00	0	0.71	21.30	2	8	0	-554	-1706	-1429	
56468	20	0.00	0	1.06	21.30	-3	6	0	-1091	-10275	-1468	
56577	20	0.00	0	0.97	21.30	0	8	0	-342	2036	-963	
56687	20	0.00	1	1.23	21.30	-3	8	4	-675	-4391	-487	
56797	20	0.00	1	1.67	21.30	0	7	0	-359	-1086	-940	
56907	20	0.00	1	1.23	21.30	1	7	-1	-285	618	-558	
57016	20	0.00	1	0.71	21.30	0	7	0	-286	-879	-199	
57127	20	0.00	1	0.88	21.30	0	7	0	324	-1097	1733	
57237	20	0.00	1	1.67	21.30	0	7	0	1006	423	3365	
57353	20	0.00	1	1.06	21.30	2	10	7	-341	-2965	-276	
57515	20	0.00	1	0.88	21.30	1	4	-1	-1660	-7328	-961	
57626	20	0.00	1	0.71	21.30	-1	8	1	1257	4051	1977	
57736	20	0.00	1	1.23	21.30	0	7	0	542	4264	-549	
57846	20	0.00	1	1.49	21.30	0	7	0	-832	-2111	-2214	
57955	20	0.00	1	1.23	21.30	-3	7	0	-556	-14752	801	
58066	20	0.00	1	1.32	21.30	-3	8	-2	1061	8189	1533	
58176	20	0.00	1	1.14	21.30	0	9	0	-695	-9233	-1297	
58286	20	0.00	1	0.71	21.30	1	8	0	-636	3782	-1803	
58396	20	0.00	1	1.32	21.30	0	7	0	-789	-1279	-641	
58512	20	0.00	1	1.41	21.30	0	7	0	458	2087	601	
58622	20	0.00	1	1.14	21.30	0	8	0	-251	975	-653	
58733	20	0.00	1	1.41	21.30	0	7	0	-541	163	-441	
58842	20	0.00	1	1.23	21.30	0	8	0	-475	-1210	222	
58952	20	0.00	1	2.10	21.30	1	7	0	-340	201	218	
59062	20	0.00	1	1.49	21.30	0	7	0	-304	-831	-397	
59172	20	0.00	1	1.06	21.30	0	7	0	-175	183	-222	
59281	20	0.00	1	1.32	21.30	0	8	0	-378	188	375	
59391	20	0.00	1	0.88	21.30	0	7	0	-234	976	-131	
59502	20	0.00	1	1.06	21.30	0	7	0	-193	-391	-288	
59612	20	0.00	1	1.75	21.30	0	7	0	-282	419	207	
59729	20	0.00	1	1.06	21.30	0	7	0	-169	195	72	
59839	20	0.00	1	1.32	21.30	0	7	0	-156	-103	-215	
59948	20	0.00	1	1.23	21.30	0	8	0	-335	-415	-118	
60058	20	0.00	1	1.67	21.30	0	7	0	-282	-119	252	
60168	20	0.00	1	1.06	21.30	0	7	0	-192	-167	-39	
60278	20	0.00	1	1.06	21.30	0	7	0	-261	-405	-134	
60387	20	0.00	1	1.06	21.30	0	7	0	-329	-418	141	
60498	20	0.00	1	0.71	21.30	0	7	0	-161	-85	-25	
60608	20	0.00	1	1.32	21.30	0	7	0	-211	-277	-130	
60717	20	0.00	1	0.62	21.30	0	7	0	-346	-528	6	
60834	20	0.00	1	0.97	21.30	0	7	0	-213	-137	53	
60943	20	0.00	1	1.14	21.30	0	7	0	-151	-110	-97	
61054	20	0.00	1	1.14	21.30	0	7	0	-310	-429	-47	
61164	20	0.00	1	0.97	21.30	0	7	0	-265	-483	94	
61273	20	0.00	1	1.32	21.30	0	7	0	-143	35	-41	
61384	20	0.00	1	0.88	21.40	0	7	0	96	872	-327	
61493	20	0.00	1	1.41	21.40	0	8	0	-506	-446	203	
61603	20	0.00	1	0.88	21.40	0	8	0	-244	950	-27	
61713	20	0.00	1	0.80	21.40	0	7	0	-102	1866	-441	
61823	20	0.00	1	1.14	21.40	0	8	0	-496	-30	-727	
61933	20	0.00	1	0.88	21.40	0	7	0	-501	-1881	-254	
62049	20	0.00	0	0.62	21.40	0	8	0	-574	-1806	-564	
62160	20	0.00	0	0.88	21.40	0	7	0	-739	-373	-1301	
62270	20	0.00	0	1.06	21.40	0	7	0	-932	-331	-1328	
62379	20	0.00	0	0.45	21.40	0	7	0	-453	-533	-499	
62490	20	0.00	0	0.80	21.40	0	7	0	76	337	202	
62599	20	0.00	0	1.14	21.40	0	7	0	-328	-524	-103	
62709	20	0.00	0	0.62	21.40	0	8	0	-829	-1332	-504	
62819	20	0.00	0	1.32	21.40	-1	8	0	-353	-262	-466	
62929	20	0.00	0	1.06	21.40	-1	7	0	16	389	349	
63039	20	0.00	1	1.23	21.40	0	9	0	144	775	1156	
63148	20	0.00	1	1.32	21.40	0	8	0	-431	-869	-506	
63318	20	0.00	1	1.06	21.40	-2	7	0	-771	348	-1297	
63428	20	0.00	1	1.41	21.40	-1	8	0	-354	444	136	
63537	20	0.00	1	0.88	21.40	-1	7	0	309	-229	882	
63648	20	0.00	1	0.97	21.40	0	8	0	7	308	823	
63757	20	0.00	1	1.06	21.40	0	7	0	-66	-883	539	
63867	20	0.00	1	0.97	21.40	0	7	0	-64	-302	524	
63977	20	0.00	1	1.49	21.40	0	8	0	-399	-133	-152	
64087	20	0.00	1	1.23	21.40	0	7	0	-834	-101	-1229	
64197	20	0.00	1	0.71	21.40	0	7	0	-804	-1042	-982	
64306	20	0.00	1	1.41	21.40	-1	7	0	-453	-132	-785	
64423	20	0.00	1	1.67	21.40	-1	7	0	39	162	630	
64534	20	0.00	1	1.06	21.40	0	10	1	694	2284	2617	
64643	20	0.00	1	0.80	21.40	0	7	-1	-241	-125	-25	
64753	20	0.00	1	1.06	21.40	0	7	0	-1040	-1887	-1737	
64863	20	0.00	1	1.32	21.40	-4	9	4	-241	-2914	126	
64973	20	0.00	1	0.97	21.40	-1	7	1	259	31	890	
65082	20	0.00	1	1.23	21.40	0	7	0	-469	-810	-388	
65193	20	0.00	1	0.71	21.40	0	6	0	-479	-518	-498	
65304	20	0.00	1	1.67	21.40	-11	11	8	-1345	-1512	-145	
65413	20	0.00	1	0.71	21.40	0	8	0	-415	-380	-1340	
65524	20	0.00	0	-0.43	21.40	0	8	0	-1394	-9997	-909	
65642	20	0.00	0	-0.34	21.40	0	8	0	-42	-1093	1636	
65752	20	0.00	0	-0.52	21.40	0	7	0	309	1931	196	
65863	20	0.00	0	-0.08	21.40	0	7	0	-862	-962	-1662	
65974	20	0.00	0	-0.34	21.40	-1	8	0	-525	-1157	277	
66085	20	0.00	0	-0.52	21.40	0	7	0	215	1993	589	
66197	20	0.00	0	0.36	21.40	0	7	-1	-200	733	-618	
66306	20	0.00	0	-0.60	21.40	-3	6	1	-1001	-3081	-91	
66417	20	0.00	0	-0.25	21.40	1	8	0	167	3703	1102	
66528	20	0.00	0	-0.69	21.40	0	7	0	320	3599	-43	
66639	20	0.00	0	0.45	21.40	0	7	0	-761	-1584	-1053	
66756	20	0.00	0	-0.78	21.40	0	7	0	-469	627	124	
66866	20	0.00	0	0.01	21.40	0	7	0	205	1184	468	
66977	20	0.00	0	-0.25	21.40	0	7	0	-205	-683	-377	
67088	20	0.00	0	0.10	21.40	-2	7	1	-894	-1392	-362	
67198	20	0.00	0	-0.17	21.40	0	8	0	189	2442	665	
67309	20	0.00	0	0.45	21.40	0	7	0	286	1672	164	
67419	20	0.00	0	-0.25	21.40	0	8	0	-614	-2273	-536	
67530	20	0.00	0	0.10	21.40	0	7	0	-357	113	235	
67639	20	0.00	0	0.01	21.40	0	7	0	302	1130	399	
67749	20	0.00	0	-0.34	21.40	0	7	0	-273	-227	-312	
67867	20	0.00	0	-0.17	21.40	0	7	0	-671	-1265	-237	
67978	20	0.00	0	-0.17	21.40	0	7	0	-6	134	368	
68089	20	0.00	0	-0.34	21.40	0	7	0	55	654	35	
68200	20	0.00	0	0.10	21.40	0	7	0	-552	-1021	-319	
68310	20	0.00	0	-0.34	21.40	0	7	0	-333	-519	86	
68421	20	0.00	0	-0.08	21.40	0	7	0	129	683	197	
68531	20	0.00	0	-0.08	21.40	0	7	0	-311	-496	-232	
68643	20	0.00	0	0.10	21.40	0	7	0	-602	-1263	-117	
68752	20	0.00	0	-0.08	21.40	0	7	0	-27	353	169	
68863	20	0.00	0	0.10	21.40	0	7	0	28	454	-8	
69026	20	0.00	0	-0.25	21.40	0	7	0	-570	-1263	-101	
69144	20	0.00	0	-0.34	21.40	0	7	0	7	486	110	
69254	20	0.00	0	0.10	21.40	0	7	0	-25	335	-14	
69364	20	0.00	0	0.01	21.40	0	7	0	-518	-973	-100	
69474	20	0.00	0	-0.08	21.40	0	7	0	-281	-414	52	
69585	20	0.00	0	0.01	21.40	0	7	0	64	526	24	
69695	20	0.00	0	-0.25	21.40	0	7	0	-373	-539	-90	
69806	20	0.00	0	0.10	21.40	0	7	0	-491	-935	-34	
69916	20	0.00	0	0.01	21.40	0	7	0	-24	419	36	
70025	20	0.00	0	-0.52	21.40	0	7	0	-117	121	-18	
70136	20	0.00	0	-0.34	21.40	0	7	0	-490	-1012	-51	
70248	20	0.00	0	-0.34	21.40	0	7	0	-198	-212	9	
70365	20	0.00	0	0.18	21.40	0	7	0	-25	351	-31	
70475	20	0.00	0	-0.34	21.40	0	7	0	-417	-655	-45	
70585	20	0.00	0	-0.08	21.40	0	7	0	-324	-541	-10	
70697	20	0.00	0	-0.43	21.40	0	7	0	23	436	-23	
70808	20	0.00	0	0.10	21.40	0	7	0	-235	-271	-8	
70918	20	0.00	0	-0.17	21.40	0	7	0	-465	-899	-17	
71029	20	0.00	0	0.10	21.40	0	7	0	-111	37	-28	
71138	20	0.00	0	-0.60	21.40	0	7	0	-72	92	4	
71249	20	0.00	0	0.01	21.40	0	7	0	-435	-677	-4	
71360	20	0.00	0	0.01	21.40	0	7	0	-252	-320	-14	
71469	20	0.00	0	0.27	21.40	0	7	0	-47	226	-58	
71586	20	0.00	0	-0.08	21.40	0	7	0	-351	-456	9	
71696	20	0.00	0	0.18	21.40	0	7	0	-348	-620	-24	
71806	20	0.00	0	0.27	21.40	0	7	0	-70	139	-41	
71917	20	0.00	0	-0.25	21.40	0	7	0	-206	-130	3	
72028	20	0.00	0	-0.08	21.40	0	7	0	-383	-688	-26	
72139	20	0.00	0	-0.43	21.40	0	7	0	-156	-77	-11	
72249	20	0.00	0	0.18	21.40	0	7	0	-117	72	-59	
72360	20	0.00	0	0.01	21.40	0	7	0	-378	-560	4	
72470	20	0.00	0	-0.25	21.40	0	7	0	-271	-359	0	
72580	20	0.00	0	-0.17	21.40	0	7	0	-75	186	-19	
72691	20	0.00	0	-0.25	21.40	0	7	0	-253	-362	1	
72809	20	0.00	0	-0.43	21.40	0	7	0	-342	-551	-26	
72920	20	0.00	0	0.18	21.40	0	7	0	-126	4	-10	
73030	20	0.00	0	-0.17	21.40	0	7	0	-209	-154	-37	
73140	20	0.00	0	-0.17	21.40	0	7	0	-372	-572	-1	
73251	20	0.00	0	0.18	21.40	0	7	0	-199	-187	-26	
73361	20	0.00	0	0.18	21.40	0	7	0	-122	24	-36	
73471	20	0.00	0	-0.17	21.40	0	7	0	-318	-430	-11	
73582	20	0.00	0	0.36	21.40	0	7	0	-300	-318	-11	
73692	20	0.00	0	-0.25	21.40	0	7	0	-106	80	-23	
73803	20	0.00	0	-0.52	21.40	0	7	0	-261	-296	-8	
73921	20	0.00	0	-0.08	21.40	0	7	0	-312	-489	-20	
74032	20	0.00	0	0.27	21.40	0	7	0	-146	-47	-26	
74142	20	0.00	0	0.01	21.40	0	7	0	-195	-120	-33	
74251	20	0.00	0	-0.43	21.40	0	7	0	-348	-516	-8	
74363	20	0.00	0	-0.25	21.40	0	7	0	-188	-159	-34	
74474	20	0.00	0	-0.25	21.40	0	7	0	-154	13	-25	
74584	20	0.00	0	0.18	21.40	0	7	0	-315	-407	-25	
74746	20	0.00	0	-0.08	21.40	0	7	0	-191	-130	-19	
74858	20	0.00	0	-0.08	21.40	0	7	0	-193	-62	-37	
74968	20	0.00	0	0.53	21.50	0	7	0	-318	-482	-4	
75078	20	0.00	0	0.10	21.50	0	7	0	-250	-258	-20	
75194	20	0.00	0	-0.08	21.50	0	7	0	-144	8	-35	
75305	20	0.00	0	-0.34	21.40	0	7	0	-282	-362	-26	
75417	20	0.00	0	-0.08	21.50	0	7	0	-304	-379	-13	
75527	20	0.00	0	0.18	21.50	0	7	0	-157	-87	7	
75637	20	0.00	0	-0.52	21.50	0	7	0	-239	-170	-30	
75748	20	0.00	0	0.27	21.50	0	7	0	-277	-421	-23	
75859	20	0.00	0	-0.08	21.50	0	7	0	-194	-177	-25	
75970	20	0.00	0	-0.08	21.50	0	7	0	-187	-155	-36	
76080	20	0.00	0	0.18	21.50	0	7	0	-279	-386	1	
76190	20	0.00	0	-0.08	21.50	0	7	0	-239	-286	10	
76301	20	0.00	0	0.10	21.50	0	7	0	-184	-86	-40	
76433	20	0.00	0	0.27	21.50	0	7	0	-266	-400	12	
76546	20	0.00	0	-0.34	21.50	0	7	0	-236	-285	14	
76659	20	0.00	0	-0.34	21.50	0	7	0	-185	-127	-10	
76772	20	0.00	0	-0.08	21.50	0	7	0	-251	-321	6	
76886	20	0.00	0	-0.43	21.50	0	7	0	-278	-360	-17	
76999	20	0.00	0	-0.08	21.50	0	7	0	-184	-172	-23	
77112	20	0.00	0	0.27	21.50	0	7	0	-221	-258	-31	
77225	20	0.00	0	-0.17	21.50	0	7	0	-285	-389	-26	
77338	20	0.00	0	0.18	21.50	0	7	0	-212	-172	-17	
77450	20	0.00	0	0.27	21.50	0	7	0	-199	-129	-19	
77570	20	0.00	0	0.01	21.50	0	7	0	-294	-349	-18	
77682	20	0.00	0	-0.25	21.50	0	7	0	-223	-231	-22	
77795	20	0.00	0	-0.25	21.50	0	7	0	-218	-149	-7	
77909	20	0.00	0	0.62	21.50	0	7	0	-280	-304	-1	
78022	20	0.00	0	0.18	21.50	0	7	0	-239	-262	-15	
78133	20	0.00	0	-0.08	21.50	0	7	0	-194	-135	-12	
78247	20	0.00	0	-0.17	21.50	0	7	0	-254	-276	-24	
78361	20	0.00	0	0.27	21.50	0	7	0	-248	-358	-4	
78472	20	0.00	0	0.10	21.50	0	7	0	-203	-120	-21	
78585	20	0.00	0	-0.25	21.50	0	7	0	-242	-212	3	
78698	20	0.00	0	-0.17	21.50	0	7	0	-270	-341	-27	
78818	20	0.00	0	0.18	21.50	0	7	0	-215	-193	-22	
78930	20	0.00	0	0.18	21.50	0	7	0	-232	-251	-16	
79043	20	0.00	0	0.01	21.50	0	7	0	-261	-334	-11	
79155	20	0.00	0	0.10	21.50	0	7	0	-205	-210	-26	
79268	20	0.00	0	-0.17	21.50	0	7	0	-199	-248	-19	
79382	20	0.00	0	0.27	21.50	0	7	0	-258	-307	-17	
79493	20	0.00	0	0.27	21.50	0	7	0	-221	-227	-24	
79606	20	0.00	0	-0.17	21.50	0	7	0	-221	-180	-5	
79718	20	0.00	0	-0.25	21.50	0	7	0	-244	-326	5	
79832	20	0.00	0	0.01	21.50	0	7	0	-249	-243	-6	
79945	20	0.00	0	1.49	21.50	0	7	0	-190	-179	-25	
80064	20	0.00	0	2.28	21.50	0	7	0	-234	-267	-23	
80176	20	0.00	0	1.23	21.50	0	7	0	-255	-311	-9	
80288	20	0.00	0	0.88	21.50	0	7	0	-213	-196	-18	
80453	20	0.00	0	0.80	21.50	0	7	0	-244	-240	-1	
80564	20	0.00	0	-0.25	21.50	0	7	0	-236	-310	-21	
80678	20	0.00	0	0.18	21.50	0	7	0	-225	-188	-24	
80791	20	0.00	0	0.53	21.50	0	7	0	-220	-195	-11	
80903	20	0.00	0	-0.43	21.50	0	7	0	-266	-283	-31	
81017	20	0.00	0	-0.17	21.50	0	7	0	-254	-213	-32	
81130	20	0.00	0	-0.43	21.50	0	7	0	-221	-197	-11	
81250	20	0.00	0	0.01	21.50	0	7	0	-252	-263	-24	
81362	20	0.00	0	-0.25	21.50	0	7	0	-243	-242	-18	
81476	20	0.00	0	0.01	21.50	0	7	0	-224	-146	-29	
81588	20	0.00	0	-0.34	21.50	0	7	0	-247	-262	-22	
81701	20	0.00	0	-0.34	21.50	0	7	0	-241	-323	17	
81815	20	0.00	0	-0.08	21.50	0	7	0	-219	-224	-5	
81928	20	0.00	0	0.27	21.50	0	7	0	-245	-225	4	
82040	20	0.00	0	0.27	21.50	0	7	0	-263	-266	10	
82153	20	0.00	0	-0.17	21.50	0	7	0	-199	-235	-28	
82265	20	0.00	0	0.10	21.50	0	7	0	-238	-218	-36	
82378	20	0.00	0	-0.08	21.50	0	7	0	-242	-199	-29	
82499	20	0.00	0	0.53	21.50	0	7	0	-201	-175	-46	
82611	20	0.00	0	0.45	21.50	0	7	0	-228	-227	-20	
82723	20	0.00	0	0.27	21.50	0	7	0	-258	-293	1	
82836	20	0.00	0	-0.08	21.50	0	7	0	-235	-270	-19	
82948	20	0.00	0	0.45	21.50	0	7	0	-229	-225	-11	
83061	20	0.00	0	0.27	21.50	0	7	0	-252	-192	-6	
83173	20	0.00	0	0.10	21.50	0	7	0	-238	-270	-16	
83285	20	0.00	0	-0.25	21.50	0	7	0	-200	-271	-27	
83399	20	0.00	0	0.27	21.50	0	7	0	-266	-258	-15	
83511	20	0.00	0	0.18	21.50	0	7	0	-263	-228	-15	
83623	20	0.00	0	0.27	21.50	0	7	0	-207	-222	-12	
83742	20	0.00	0	0.27	21.50	0	7	0	-224	-237	-11	
83854	20	0.00	0	-0.43	21.50	0	7	0	-268	-282	-12	
83968	20	0.00	0	-0.17	21.50	0	7	0	-227	-231	-26	
84081	20	0.00	0	-0.52	21.50	0	7	0	-230	-246	-14	
84195	20	0.00	0	0.18	21.50	0	7	0	-241	-254	-24	
84307	20	0.00	0	0.45	21.50	0	7	0	-241	-243	-18	
84420	20	0.00	0	0.45	21.50	0	7	0	-211	-289	-16	
84532	20	0.00	0	0.18	21.50	0	7	0	-264	-265	-6	
84644	20	0.00	0	-0.34	21.50	0	7	0	-242	-151	-27	
84758	20	0.00	0	0.80	21.50	0	7	0	-241	-196	-8	
84876	20	0.00	0	-0.17	21.50	0	7	0	-249	-265	-52	
84990	20	0.00	0	-0.08	21.50	0	7	0	-233	-288	-11	
85104	20	0.00	0	0.10	21.50	0	7	0	-193	-261	-10	
85215	20	0.00	0	-0.08	21.50	0	7	0	-234	-258	-32	
85329	20	0.00	0	-0.25	21.50	0	7	0	-218	-253	-31	
85443	20	0.00	0	0.01	21.60	0	7	0	-228	-127	4	
85554	20	0.00	0	-0.17	21.50	0	7	0	-214	-249	10	
85668	20	0.00	0	-0.60	21.50	0	7	0	-255	-349	-7	
85782	20	0.00	0	-0.17	21.60	0	7	0	-246	-248	-29	
85895	20	0.00	0	-0.69	21.60	0	7	0	-198	-206	3	
86008	20	0.00	0	-0.34	21.50	0	7	0	-230	-184	-18	
86181	20	0.00	0	-0.34	21.60	0	7	0	-238	-245	58	
86295	20	0.00	0	-0.52	21.60	0	7	0	-199	-243	21	
86407	20	0.00	0	-0.25	21.50	0	7	0	-243	-295	-6	
86521	20	0.00	0	-0.43	21.60	0	7	0	-238	-254	-12	
86635	20	0.00	0	-0.17	21.60	0	7	0	-199	-210	-8	
86747	20	0.00	0	-0.52	21.60	0	7	0	-239	-204	-16	
86861	20	0.00	0	-0.17	21.60	0	7	0	-229	-270	-16	
86975	20	0.00	0	0.01	21.60	0	7	0	-242	-257	-20	
87086	20	0.00	0	-0.34	21.60	0	7	0	-221	-230	-20	
87200	20	0.00	0	-0.34	21.60	0	7	0	-253	-292	-4	
87313	20	0.00	0	-0.60	21.60	0	7	0	-242	-208	-15	
87433	20	0.00	0	0.01	21.60	0	7	0	-224	-182	-25	
87546	20	0.00	0	-0.08	21.60	0	7	0	-228	-228	-20	
87660	20	0.00	0	-0.43	21.60	0	7	0	-233	-263	-11	
87773	20	0.00	0	-0.60	21.60	0	7	0	-239	-263	3	
87886	20	0.00	0	0.01	21.60	0	7	0	-224	-250	-34	
87999	20	0.00	0	-0.17	21.60	0	7	0	-276	-254	-16	
88112	20	0.00	0	0.01	21.60	0	7	0	-231	-248	-3	
88224	20	0.00	0	0.18	21.60	0	7	0	-241	-185	-30	
88336	20	0.00	0	0.27	21.60	0	7	0	-250	-271	3	
88448	20	0.00	0	-0.08	21.60	0	7	0	-219	-241	1	
88569	20	0.00	0	0.45	21.60	0	7	0	-221	-276	-43	
88681	20	0.00	0	-0.17	21.60	0	7	0	-241	-261	-8	
88794	20	0.00	0	0.45	21.60	0	7	0	-246	-272	-7	
88906	20	0.00	0	0.01	21.60	0	7	0	-237	-239	-44	
89018	20	0.00	0	0.01	21.60	0	7	0	-237	-242	-7	
89131	20	0.00	0	0.36	21.60	0	7	0	-243	-244	-19	
89244	20	0.00	0	-0.52	21.60	0	7	0	-243	-277	-17	
89357	20	0.00	0	-0.60	21.60	0	7	0	-226	-185	-17	
89470	20	0.00	0	0.10	21.60	0	7	0	-250	-282	4	
89583	20	0.00	0	-0.60	21.60	0	7	0	-224	-242	-9	
89695	20	0.00	0	-0.52	21.60	0	7	0	-200	-206	-6	
89816	20	0.00	0	-0.17	21.60	0	7	0	-258	-273	-29	
89929	20	0.00	0	-0.52	21.60	0	7	0	-245	-300	-28	
90042	20	0.00	0	-0.52	21.60	0	7	0	-208	-235	1	
90156	20	0.00	0	-0.52	21.60	0	7	0	-241	-257	-2	
90269	20	0.00	0	-0.34	21.60	0	7	0	-228	-210	-16	
90382	20	0.00	0	-0.17	21.60	0	7	0	-232	-184	1	
90496	20	0.00	0	0.18	21.60	0	7	0	-253	-230	-16	
90608	20	0.00	0	-0.25	21.60	0	7	0	-230	-325	-5	
90721	20	0.00	0	-0.34	21.60	0	7	0	-204	-246	-24	
90835	20	0.00	0	-0.17	21.60	0	7	0	-251	-142	-66	
90949	20	0.00	0	-0.25	21.60	0	7	0	-236	-247	9	
91068	20	0.00	0	-0.08	21.60	0	7	0	-231	-265	-22	
91182	20	0.00	0	-0.34	21.60	0	7	0	-210	-289	-20	
91296	20	0.00	0	0.53	21.60	0	7	0	-230	-231	-44	
91407	20	0.00	0	0.18	21.60	0	7	0	-247	-228	-28	
91520	20	0.00	0	-0.17	21.60	0	7	0	-236	-270	-29	
91634	20	0.00	0	-0.17	21.60	0	7	0	-223	-212	24	
91746	20	0.00	0	0.10	21.60	0	7	0	-231	-193	-39	
91859	20	0.00	0	0.10	21.60	0	7	0	-236	-337	-38	
92024	20	0.00	0	-0.43	21.60	0	7	0	-220	-304	2	
92138	20	0.00	0	0.62	21.60	0	7	0	-213	-220	-33	
92256	20	0.00	0	0.36	21.60	0	7	0	-232	-217	4	
92368	20	0.00	0	-0.34	21.60	0	7	0	-241	-224	-26	
92483	20	0.00	0	0.10	21.60	0	7	0	-232	-255	-12	
92594	20	0.00	0	0.27	21.60	0	7	0	-234	-294	-11	
92707	20	0.00	0	0.36	21.60	0	7	0	-247	-225	-38	
92820	20	0.00	0	0.45	21.60	0	7	0	-219	-236	2	
92931	20	0.00	0	0.01	21.60	0	7	0	-254	-280	-5	
93044	20	0.00	0	-0.17	21.60	0	7	0	-240	-245	-33	
93156	20	0.00	0	-0.17	21.60	0	7	0	-215	-255	-9	
93270	20	0.00	0	0.18	21.60	0	7	0	-213	-265	18	
93383	20	0.00	0	0.01	21.60	0	7	0	-223	-272	-12	
93502	20	0.00	0	-0.08	21.60	0	7	0	-245	-244	17	
93614	20	0.00	0	0.01	21.60	0	7	0	-228	-234	-16	
93727	20	0.00	0	0.10	21.60	0	7	0	-235	-304	-27	
93839	20	0.00	0	0.71	21.60	0	7	0	-258	-288	-13	
93951	20	0.00	0	0.27	21.60	0	7	0	-213	-239	-1	
94064	20	0.00	0	0.01	21.60	0	7	0	-234	-244	-48	
94176	20	0.00	0	0.01	21.60	0	7	0	-239	-250	-25	
94289	20	0.00	0	-0.17	21.60	0	7	0	-213	-193	-5	
94402	20	0.00	0	0.18	21.60	0	7	0	-208	-203	7	
94514	20	0.00	0	-0.17	21.60	0	7	0	-261	-290	-15	
94628	20	0.00	0	-0.08	21.60	0	7	0	-238	-188	-25	
94748	20	0.00	0	0.18	21.60	0	7	0	-204	-233	-46	
94860	20	0.00	0	-0.08	21.60	0	7	0	-250	-213	-45	
94973	20	0.00	0	0.10	21.60	0	7	0	-243	-179	14	
95086	20	0.00	0	0.53	21.60	0	7	0	-237	-167	-35	
95198	20	0.00	0	-0.25	21.60	0	7	0	-268	-271	-24	
95311	20	0.00	0	-0.43	21.60	0	7	0	-239	-306	1	
95425	20	0.00	0	0.45	21.60	0	7	0	-220	-211	-38	
95537	20	0.00	0	0.01	21.60	0	7	0	-264	-267	-27	
95649	20	0.00	0	-0.17	21.60	0	7	0	-238	-227	-25	
95763	20	0.00	0	0.01	21.60	0	7	0	-227	-213	-40	
95882	20	0.00	0	0.10	21.60	0	7	0	-231	-290	-9	
95994	20	0.00	0	-0.08	21.60	0	7	0	-246	-218	1	
96108	20	0.00	0	0.10	21.60	0	7	0	-236	-236	-10	
96220	20	0.00	0	0.62	21.60	0	7	0	-256	-254	-9	
96333	20	0.00	0	0.01	21.60	0	7	0	-235	-246	-15	
96444	20	0.00	0	0.01	21.60	0	7	0	-217	-271	14	
96557	20	0.00	0	-0.25	21.60	0	7	0	-221	-249	16	
96671	20	0.00	0	0.01	21.60	0	7	0	-249	-362	-27	
96782	20	0.00	0	0.18	21.60	0	7	0	-248	-285	-26	
96895	20	0.00	0	0.18	21.60	0	7	0	-230	-228	1	
97008	20	0.00	0	-0.17	21.60	0	7	0	-250	-267	-12	
97128	20	0.00	0	0.10	21.60	0	7	0	-250	-292	-32	
97239	20	0.00	0	-0.17	21.60	0	7	0	-208	-189	-21	
97353	20	0.00	0	0.71	21.60	0	7	0	-225	-277	-23	
97465	20	0.00	0	-0.34	21.60	0	7	0	-241	-287	-20	
97579	20	0.00	0	0.18	21.60	0	7	0	-217	-253	7	
97691	20	0.00	0	-0.43	21.70	0	7	0	-247	-222	-17	
97857	20	0.00	0	0.01	21.60	0	7	0	-254	-262	11	
97969	20	0.00	0	-0.17	21.60	0	7	0	-240	-197	-3	
98083	20	0.00	0	-0.17	21.60	0	7	0	-220	-211	-12	
98197	20	0.00	0	-0.25	21.60	0	7	0	-234	-308	-3	
98309	20	0.00	0	-0.25	21.60	0	7	0	-221	-265	-16	
98430	20	0.00	0	-0.60	21.60	0	7	0	-238	-219	-48	
98543	20	0.00	0	-0.25	21.60	0	7	0	-240	-283	6	
98656	20	0.00	0	0.10	21.60	0	7	0	-239	-251	-25	
98769	20	0.00	0	0.18	21.60	0	7	0	-232	-217	-41	
98881	20	0.00	0	-0.52	21.60	0	7	0	-229	-225	-9	
98994	20	0.00	0	-0.34	21.60	0	7	0	-250	-307	-35	
99108	20	0.00	0	-0.25	21.60	0	7	0	-236	-263	-31	
99222	20	0.00	0	0.10	21.70	0	7	0	-239	-254	-16	
99333	20	0.00	0	0.01	21.70	0	7	0	-212	-284	-20	
99446	20	0.00	0	0.01	21.70	0	7	0	-228	-277	-8	
99565	20	0.00	0	-0.34	21.70	0	7	0	-234	-266	-12	
99678	20	0.00	0	-0.08	21.70	0	7	0	-232	-202	-11	
99792	20	0.00	0	-0.43	21.70	0	7	0	-238	-253	0	
99906	20	0.00	0	-0.08	21.70	0	7	0	-248	-236	-7	
100018	20	0.00	0	-0.43	21.70	0	7	0	-262	-244	-33	
100133	20	0.00	0	-0.34	21.70	0	7	0	-214	-231	-19	
100248	20	0.00	0	0.27	21.70	0	7	0	-235	-262	-15	
100361	20	0.00	0	-0.08	21.70	0	7	0	-251	-218	-13	
100475	20	0.00	0	0.18	21.70	0	7	0	-223	-249	14	
100589	20	0.00	0	-0.08	21.70	0	7	0	-211	-249	-33	
100703	20	0.00	0	-0.17	21.70	0	7	0	-217	-265	-23	
100824	20	0.00	0	0.18	21.70	0	7	0	-200	-220	9	
100938	20	0.00	0	-0.17	21.70	0	7	0	-222	-333	-13	
101052	20	0.00	0	0.18	21.70	0	7	0	-268	-293	-38	
101165	20	0.00	0	0.10	21.70	0	7	0	-229	-192	-18	
101280	20	0.00	0	-0.34	21.70	0	7	0	-234	-209	-13	
101393	20	0.00	0	-0.25	21.70	0	7	0	-252	-212	-19	
101508	20	0.00	0	0.10	21.70	0	7	0	-239	-218	-24	
101622	20	0.00	0	-0.25	21.70	0	7	0	-242	-158	-36	
101737	20	0.00	0	-0.08	21.70	0	7	0	-239	-250	-14	
101850	20	0.00	0	0.27	21.70	0	7	0	-222	-317	-11	
101971	20	0.00	0	-0.08	21.70	0	7	0	-202	-209	-36	
102085	20	0.00	0	0.10	21.70	0	7	0	-233	-246	4	
102198	20	0.00	0	0.01	21.70	0	7	0	-270	-281	-10	
102312	20	0.00	0	0.01	21.70	0	7	0	-212	-220	-9	
102425	20	0.00	0	-0.08	21.70	0	7	0	-228	-162	-30	
102539	20	0.00	0	-0.43	21.70	0	7	0	-255	-235	-19	
102654	20	0.00	0	-0.34	21.70	0	7	0	-211	-244	-15	
102769	20	0.00	0	-0.08	21.70	0	7	0	-215	-161	-11	
102883	20	0.00	0	0.01	21.70	0	7	0	-256	-275	-9	
102997	20	0.00	0	0.10	21.70	0	7	0	-233	-295	-3	
103110	20	0.00	0	-0.34	21.70	0	7	0	-216	-217	-9	
103232	20	0.00	0	0.53	21.70	0	7	0	-240	-280	-20	
103345	20	0.00	0	0.01	21.70	0	7	0	-233	-249	8	
103458	20	0.00	0	0.10	21.70	0	7	0	-225	-154	-40	
103624	20	0.00	0	-0.52	21.70	0	7	0	-244	-273	-2	
103738	20	0.00	0	-0.34	21.70	0	7	0	-200	-127	-33	
103852	20	0.00	0	-0.25	21.70	0	7	0	-222	-242	-25	
103967	20	0.00	0	0.10	21.70	0	7	0	-261	-297	-27	
104080	20	0.00	0	-0.25	21.70	0	7	0	-224	-234	-11	
104195	20	0.00	0	0.27	21.70	0	7	0	-225	-207	-14	
104308	20	0.00	0	-0.43	21.70	0	7	0	-235	-247	-32	
104430	20	0.00	0	-0.34	21.70	0	7	0	-236	-238	1	
104543	20	0.00	0	0.18	21.70	0	7	0	-219	-250	-13	
104658	20	0.00	0	0.27	21.70	0	7	0	-213	-256	-25	
104771	20	0.00	0	-0.25	21.70	0	7	0	-262	-259	-15	
104885	20	0.00	0	0.01	21.70	0	7	0	-228	-239	-19	
104999	20	0.00	0	0.10	21.70	0	7	0	-234	-220	-33	
105113	20	0.00	0	0.36	21.70	0	7	0	-258	-294	7	
105225	20	0.00	0	0.01	21.70	0	7	0	-208	-251	5	
105339	20	0.00	0	0.01	21.70	0	7	0	-216	-218	-29	
105453	20	0.00	0	0.27	21.70	0	7	0	-255	-283	-1	
105565	20	0.00	0	-0.25	21.70	0	7	0	-220	-274	12	
105687	20	0.00	0	0.10	21.70	0	7	0	-230	-192	-53	
105800	20	0.00	0	-0.25	21.70	0	7	0	-222	-241	-14	
105914	20	0.00	0	-0.69	21.70	0	7	0	-237	-263	-18	
106029	20	0.00	0	0.27	21.70	0	7	0	-228	-221	-22	
106143	20	0.00	0	0.10	21.70	0	7	0	-226	-239	-12	
106255	20	0.00	0	-0.08	21.70	0	7	0	-265	-288	-17	
106371	20	0.00	0	0.10	21.70	0	7	0	-224	-208	-10	
106484	20	0.00	0	-0.25	21.70	0	7	0	-231	-254	-6	
106598	20	0.00	0	0.01	21.70	0	7	0	-241	-233	3	
106712	20	0.00	0	0.10	21.70	0	7	0	-224	-215	-34	
106832	20	0.00	0	-0.69	21.70	0	7	0	-226	-221	-17	
106947	20	0.00	0	-0.17	21.70	0	7	0	-234	-227	-14	
107061	20	0.00	0	0.10	21.70	0	7	0	-220	-229	-27	
107174	20	0.00	0	0.36	21.70	0	7	0	-207	-256	-14	
107288	20	0.00	0	-0.60	21.70	0	7	0	-267	-275	-31	
107402	20	0.00	0	-0.34	21.70	0	7	0	-219	-216	-27	
107517	20	0.00	0	-0.17	21.70	0	7	0	-224	-280	3	
107631	20	0.00	0	-0.60	21.70	0	7	0	-245	-267	-17	
107745	20	0.00	0	0.18	21.70	0	7	0	-196	-201	-19	
107859	20	0.00	0	0.01	21.70	0	7	0	-223	-207	-10	
107980	20	0.00	0	0.01	21.70	0	7	0	-289	-274	-30	
108092	20	0.00	0	0.01	21.70	0	7	0	-233	-275	-17	
108206	20	0.00	0	0.10	21.70	0	7	0	-220	-244	-1	
108320	20	0.00	0	0.18	21.70	0	7	0	-256	-255	-42	
108432	20	0.00	0	-0.25	21.70	0	7	0	-236	-307	-24	
108547	20	0.00	0	-0.34	21.70	0	7	0	-239	-252	-41	
108662	20	0.00	0	0.10	21.70	0	7	0	-250	-268	-15	
108776	20	0.00	0	-0.52	21.70	0	7	0	-237	-292	-6	
108889	20	0.00	0	-0.25	21.70	0	7	0	-223	-218	-27	
109004	20	0.00	0	-0.08	21.70	0	7	0	-242	-243	-23	
109119	20	0.00	0	0.18	21.70	0	7	0	-252	-283	-1	
109238	20	0.00	0	-0.25	21.70	0	7	0	-205	-177	-39	
109353	20	0.00	0	0.01	21.70	0	7	0	-231	-263	-5	
109519	20	0.00	0	0.45	21.70	0	7	0	-227	-252	-8	
109633	20	0.00	0	0.01	21.70	0	7	0	-222	-160	-7	
109746	20	0.00	0	-0.25	21.70	0	7	0	-245	-264	-1	
109861	20	0.00	0	-0.08	21.70	0	7	0	-252	-272	-28	
109975	20	0.00	0	0.36	21.70	0	7	0	-185	-211	-23	
110088	20	0.00	0	-0.25	21.70	0	7	0	-252	-264	-18	
110203	20	0.00	0	-0.34	21.70	0	7	0	-229	-256	-22	
110318	20	0.00	0	-0.17	21.70	0	7	0	-222	-234	-38	
110438	20	0.00	0	0.01	21.70	0	7	0	-238	-114	44	
110552	20	0.00	0	-0.52	21.70	0	8	0	-218	-277	43	
110666	20	0.00	0	-0.43	21.70	0	7	0	-226	29	-27	
110780	20	0.00	0	-0.69	21.70	0	7	0	-250	-273	-68	
110895	20	0.00	0	0.10	21.70	0	7	0	-247	-562	-22	
111009	20	0.00	0	0.27	21.70	0	7	0	-265	2	42	
111121	20	0.00	0	0.01	21.70	0	8	0	-193	-206	-35	
111235	20	0.00	0	-0.34	21.70	0	7	0	-279	-350	0	
111350	20	0.00	0	-0.17	21.70	0	7	0	-206	-196	-5	
111465	20	0.00	0	-0.25	21.70	0	7	0	-199	-196	8	
111579	20	0.00	0	-0.34	21.70	0	8	0	-278	-253	-39	
111700	20	0.00	0	-0.08	21.70	0	7	0	-227	-314	-17	
111815	20	0.00	0	-0.34	21.70	0	7	0	-200	-209	8	
111928	20	0.00	0	-0.08	21.70	-1	8	1	-231	-1680	122	
112043	20	0.00	0	-0.43	21.70	0	8	0	-544	-7016	-282	
112158	20	0.00	0	-0.52	21.70	0	7	0	-236	1880	-370	
112272	20	0.00	0	-0.08	21.70	-7	12	6	123	-11063	562	
112387	20	0.00	0	-0.34	21.70	0	6	2	-435	-3499	-93	
112502	20	0.00	0	-0.34	21.70	0	7	1	-96	634	-12	
112616	20	0.00	0	-0.43	21.70	0	7	0	-50	402	-42	
112730	20	0.00	0	-0.17	21.70	0	7	0	-439	-488	-5	
112851	20	0.00	0	0.10	21.70	0	7	0	-272	-288	-76	
112965	20	0.00	0	-0.17	21.70	0	7	0	-45	452	26	
113079	20	0.00	0	-0.43	21.70	0	7	0	-311	-552	3	
113194	20	0.00	0	-0.17	21.70	0	7	0	-330	-591	-4	
113309	20	0.00	0	-0.69	21.70	0	7	0	-95	85	-73	
113422	20	0.00	0	-0.17	21.70	0	7	0	-301	-286	64	
113537	20	0.00	0	0.18	21.70	0	7	0	-348	-395	-27	
113651	20	0.00	0	-0.08	21.70	0	7	0	-110	160	-39	
113765	20	0.00	0	-0.52	21.70	0	7	0	-192	-286	21	
113879	20	0.00	0	-0.34	21.70	0	7	0	-410	-780	-45	
114001	20	0.00	0	0.01	21.70	0	7	0	-145	-160	-35	
114114	20	0.00	0	-0.08	21.70	0	8	0	-163	-108	76	
114228	20	0.00	0	0.27	21.80	0	7	0	-334	-546	-18	
114342	20	0.00	0	-0.34	21.80	0	7	0	-236	-25	-50	
114457	20	0.00	0	-0.08	21.80	0	7	0	-173	-57	-31	
114570	20	0.00	0	-0.17	21.80	0	7	0	-320	-489	12	
114686	20	0.00	0	-0.52	21.80	0	7	0	-269	-291	-77	
114800	20	0.00	0	-0.34	21.80	0	8	0	-155	-133	19	
114914	20	0.00	0	-0.69	21.80	0	7	0	-271	-340	-6	
115029	20	0.00	0	-0.43	21.80	0	7	0	-261	-223	-43	
115144	20	0.00	0	-0.69	21.70	0	7	0	-124	-101	21	
115318	20	0.00	0	-0.78	21.80	0	7	0	-339	-405	-30	
115433	20	0.00	0	-0.17	21.70	0	7	0	-240	-211	17	
115546	20	0.00	0	-0.43	21.70	0	7	0	-151	-161	25	
115661	20	0.00	0	-0.08	21.70	0	7	0	-296	-269	-23	
115776	20	0.00	0	-0.78	21.80	0	7	0	-274	-251	-51	
115890	20	0.00	0	-0.60	21.80	0	7	0	-155	-87	-18	
116005	20	0.00	0	-0.34	21.70	0	8	0	-264	-331	-10	
116119	20	0.00	0	-0.52	21.80	0	7	0	-359	-1704	-44	
116233	20	0.00	0	-0.17	21.80	0	7	1	-180	159	-20	
116348	20	0.00	0	-0.43	21.80	0	8	0	-64	186	75	
116470	20	0.00	0	-0.25	21.80	0	7	0	-343	-401	-78	
116584	20	0.00	0	0.36	21.80	0	7	0	-306	-576	-4	
116697	20	0.00	0	-0.17	21.70	0	7	0	-91	123	-13	
116812	20	0.00	0	-0.17	21.80	0	7	0	-278	-271	23	
116927	20	0.00	0	-0.08	21.80	0	8	1	86	2306	114	
117040	20	0.00	0	0.62	21.80	0	7	0	-11	884	58	
117154	20	0.00	0	-0.34	21.80	0	8	0	-295	208	-79	
117269	20	0.00	0	-0.17	21.80	0	7	0	-347	-677	14	
117382	20	0.00	0	-0.60	21.80	0	7	0	-148	-165	-42	
117497	20	0.00	0	-0.08	21.80	0	7	0	-216	-361	-16	
117612	20	0.00	0	-0.52	21.80	0	7	0	-302	-328	-69	
117732	20	0.00	0	0.01	21.80	0	7	0	-174	-77	-11	
117846	20	0.00	0	-0.08	21.80	0	7	0	-210	-245	22	
117961	20	0.00	0	0.18	21.80	0	7	0	-296	-413	-35	
118074	20	0.00	0	0.01	21.80	0	7	0	-206	-194	-7	
118188	20	0.00	0	0.01	21.80	0	7	0	-172	-152	8	
118301	20	0.00	0	0.18	21.80	0	7	0	-278	-401	-35	
118414	20	0.00	0	0.01	21.80	0	7	0	-253	-282	-37	
118528	20	0.00	0	-0.17	21.80	0	7	0	-214	-136	-9	
118642	20	0.00	0	0.01	21.80	0	7	0	-233	-243	-28	
118755	20	0.00	0	0.18	21.80	0	7	0	-270	-301	-6	
118875	20	0.00	0	0.10	21.80	0	7	0	-212	-159	0	
118989	20	0.00	0	-0.43	21.80	0	7	0	-238	-236	-25	
119104	20	0.00	0	-0.25	21.80	0	7	0	-259	-341	-12	
119218	20	0.00	0	-0.25	21.80	0	7	0	-219	-241	-23	
119332	20	0.00	0	-0.34	21.80	0	7	0	-240	-140	-47	
119447	20	0.00	0	-0.43	21.80	0	7	0	-260	-275	27	
119561	20	0.00	0	0.10	21.80	0	7	0	-219	-220	-13	
119675	20	0.00	0	0.18	21.80	0	7	0	-199	-246	-31	
119789	20	0.00	0	0.01	21.80	0	7	0	-249	-306	0	
119901	20	0.00	0	0.10	21.80	0	7	0	-236	-284	1	
120015	20	0.00	0	0.10	21.80	0	7	0	-221	-178	-41	
120135	20	0.00	0	0.27	21.80	0	7	0	-254	-257	12	
120248	20	0.00	0	-0.08	21.80	0	7	0	-258	-291	-8	
120363	20	0.00	0	0.18	21.80	0	7	0	-210	-245	-17	
120476	20	0.00	0	0.01	21.80	0	7	0	-227	-260	7	
120589	20	0.00	0	-0.08	21.80	0	7	0	-222	-291	-30	
120704	20	0.00	0	-0.08	21.80	0	7	0	-207	-236	-20	
120819	20	0.00	0	0.18	21.80	0	7	0	-217	-265	11	
120931	20	0.00	0	-0.25	21.80	0	7	0	-256	-287	-23	
121047	20	0.00	0	0.18	21.80	0	7	0	-215	-222	-36	
121213	20	0.00	0	-0.17	21.80	0	7	0	-247	-276	-14	
121335	20	0.00	0	0.01	21.80	0	7	0	-240	-228	-72	
121448	20	0.00	0	-0.69	21.80	0	7	0	-229	-213	-9	
121562	20	0.00	0	0.45	21.80	0	7	0	-234	-288	-4	
121676	20	0.00	0	0.36	21.80	0	7	0	-270	-223	-34	
121790	20	0.00	0	-0.08	21.80	0	7	0	-233	-170	2	
121903	20	0.00	0	0.53	21.80	0	7	0	-229	-248	-33	
122017	20	0.00	0	0.71	21.80	0	7	0	-248	-255	-19	
122131	20	0.00	0	0.36	21.80	0	7	0	-240	-225	14	
122243	20	0.00	0	-0.08	21.80	0	7	0	-230	-246	-23	
122358	20	0.00	0	0.01	21.80	0	7	0	-226	-204	-56	
122472	20	0.00	0	-0.08	21.80	0	7	0	-244	-222	23	
122592	20	0.00	0	0.18	21.80	0	7	0	-236	-250	-20	
122707	20	0.00	0	0.27	21.80	0	7	0	-229	-268	-17	
122820	20	0.00	0	0.62	21.80	0	7	0	-238	-246	22	
122933	20	0.00	0	-0.34	21.80	0	7	0	-220	-208	-53	
123048	20	0.00	0	0.01	21.80	0	7	0	-222	-281	-6	
123161	20	0.00	0	0.10	21.80	0	7	0	-229	-211	-3	
123274	20	0.00	0	0.27	21.80	0	7	0	-220	-211	-28	
123388	20	0.00	0	-0.25	21.80	0	7	0	-258	-279	19	
123503	20	0.00	0	0.10	21.80	0	7	0	-230	-242	-13	
123615	20	0.00	0	0.36	21.80	0	7	0	-242	-211	-27	
123736	20	0.00	0	0.10	21.80	0	7	0	-224	-242	12	
123849	20	0.00	0	0.01	21.80	0	7	0	-250	-288	15	
123962	20	0.00	0	0.10	21.80	0	7	0	-245	-197	-22	
124076	20	0.00	0	0.01	21.80	0	7	0	-208	-226	27	
124189	20	0.00	0	0.53	21.80	0	7	0	-252	-270	-31	
124302	20	0.00	0	0.45	21.80	0	7	0	-226	-271	-42	
124416	20	0.00	0	0.10	21.80	0	7	0	-190	-244	-18	
124530	20	0.00	0	-0.17	21.80	0	7	0	-265	-266	-31	
124644	20	0.00	0	-0.08	21.80	0	7	0	-251	-252	-22	
124759	20	0.00	0	0.27	21.80	0	7	0	-215	-227	-13	
124872	20	0.00	0	0.10	21.80	0	7	0	-244	-222	-1	
124993	20	0.00	0	-0.34	21.80	0	7	0	-248	-244	-25	
125106	20	0.00	0	-0.08	21.80	0	7	0	-232	-215	-25	
125221	20	0.00	0	0.45	21.80	0	7	0	-231	-244	-22	
125335	20	0.00	0	-0.25	21.80	0	7	0	-252	-293	-16	
125449	20	0.00	0	-0.25	21.80	0	7	0	-209	-225	-37	
125563	20	0.00	0	0.27	21.80	0	7	0	-216	-214	-13	
125677	20	0.00	0	1.49	21.80	0	7	0	-244	-251	-22	
125790	20	0.00	0	1.49	21.80	0	7	0	-241	-229	-18	
125903	20	0.00	0	0.88	21.80	0	7	0	-214	-209	-7	
126018	20	0.00	0	1.06	21.80	0	7	0	-238	-268	5	
126137	20	0.00	0	1.49	21.80	0	7	0	-231	-273	-29	
126251	20	0.00	0	1.06	21.80	0	7	0	-227	-227	-21	
126364	20	0.00	0	0.97	21.80	0	7	0	-233	-234	-18	
126477	20	0.00	0	1.06	21.80	0	7	0	-250	-276	-30	
126591	20	0.00	1	1.23	21.80	0	7	0	-212	-188	-32	
126704	20	0.00	1	1.14	21.80	0	7	0	-240	-225	-17	
126817	20	0.00	0	0.71	21.80	0	7	0	-221	-283	-19	
126983	20	0.00	1	1.14	21.80	0	7	0	-230	-202	-16	
127097	20	0.00	0	0.80	21.80	0	7	0	-230	-241	-8	
127211	20	0.00	0	1.14	21.80	0	7	0	-213	-241	-10	
127324	20	0.00	1	1.49	21.80	0	7	0	-224	-246	-11	
127444	20	0.00	1	1.14	21.80	0	7	0	-230	-254	-12	
127558	20	0.00	1	1.14	21.80	0	7	0	-221	-223	-24	
127670	20	0.00	1	1.23	21.80	0	7	0	-255	-199	-39	
127785	20	0.00	1	1.23	21.80	0	7	0	-246	-240	-32	
127898	20	0.00	1	0.97	21.80	0	7	0	-239	-286	-12	
128011	20	0.00	0	0.10	21.80	0	7	0	-236	-256	10	
128125	20	0.00	0	0.01	21.90	0	7	0	-243	-235	-35	
128239	20	0.00	0	-0.08	21.80	0	7	0	-247	-255	-9	
128352	20	0.00	0	-0.78	21.80	0	7	0	-216	-256	-3	
128467	20	0.00	0	-0.52	21.90	0	7	0	-219	-215	-38	
128588	20	0.00	0	-0.60	21.90	0	7	0	-211	-294	5	
128703	20	0.00	0	0.01	21.90	0	7	0	-233	-266	-9	
128816	20	0.00	0	0.18	21.80	0	7	0	-217	-222	-30	
128929	20	0.00	0	0.10	21.90	0	7	0	-267	-264	9	
129043	20	0.00	0	-0.17	21.90	0	7	0	-220	-283	26	
129157	20	0.00	0	-0.17	21.90	0	7	0	-238	-222	-9	
129272	20	0.00	0	0.45	21.90	0	7	0	-241	-231	-6	
129386	20	0.00	0	-0.17	21.90	0	7	0	-239	-248	-38	
129500	20	0.00	0	-0.17	21.90	0	7	0	-214	-202	-51	
129614	20	0.00	0	0.10	21.90	0	7	0	-201	-209	0	
129728	20	0.00	0	0.01	21.90	0	7	0	-247	-262	-7	
129847	20	0.00	0	0.10	21.90	0	7	0	-241	-255	-20	
129961	20	0.00	0	0.01	21.80	0	7	0	-244	-201	-17	
130075	20	0.00	0	0.01	21.90	0	7	0	-235	-271	-28	
130187	20	0.00	0	0.53	21.90	0	7	0	-241	-282	-25	
130301	20	0.00	0	0.36	21.90	0	7	0	-238	-220	7	
130415	20	0.00	0	-0.17	21.90	0	7	0	-214	-230	-17	
130529	20	0.00	0	0.01	21.90	0	7	0	-265	-273	0	
130642	20	0.00	0	-0.69	21.90	0	7	0	-234	-233	-5	
130757	20	0.00	0	0.18	21.90	0	7	0	-227	-168	-8	
130870	20	0.00	0	0.18	21.90	0	7	0	-253	-320	-9	
130990	20	0.00	0	-0.25	21.90	0	7	0	-247	-302	-11	
131105	20	0.00	0	0.27	21.90	0	7	0	-228	-179	-40	
131219	20	0.00	0	0.01	21.90	0	7	0	-246	-241	-11	
131332	20	0.00	0	0.27	21.90	0	7	0	-244	-287	-26	
131445	20	0.00	0	0.10	21.90	0	7	0	-231	-226	-42	
131558	20	0.00	0	-0.17	21.90	0	7	0	-252	-244	-13	
131673	20	0.00	0	0.18	21.90	0	7	0	-250	-301	13	
131786	20	0.00	0	0.53	21.90	0	7	0	-210	-349	-48	
131899	20	0.00	0	0.36	21.90	12	15	-9	245	-7200	-743	
132013	20	0.00	0	0.45	21.90	-1	15	2	53	-24697	589	
132133	20	0.00	0	1.06	21.90	1	15	-2	-103	-28131	3930	
132247	20	0.00	2	8.73	21.90	-6	15	6	7203	-9080	3420	
132360	20	0.00	5	20.69	21.80	-3	15	7	-6008	8717	-7345	
132475	40	0.00	9	25.24	21.80	5	-9	-3	-1269	-12561	-652	
132597	40	0.00	14	33.02	21.80	0	-8	6	4011	-20364	1711	
132773	40	0.00	20	45.18	21.80	1	-8	0	-3481	-19723	504	
132896	40	0.00	26	52.72	21.80	0	-7	0	936	-21852	-798	
133019	40	0.00	33	59.64	21.80	1	-7	2	-38	-20798	70	
133143	40	0.00	40	66.31	21.80	0	-6	1	517	-19729	2232	
133265	40	0.00	46	73.94	21.80	0	-6	0	1640	-19330	-835	
133396	40	0.00	53	80.27	21.80	3	-6	0	-326	-17502	-422	
133518	40	0.00	60	86.51	21.70	0	-5	2	2	-18770	2120	
133642	40	0.00	66	92.31	21.70	0	-5	0	-468	-17023	-644	
133765	40	0.00	72	98.30	21.70	1	-4	0	-205	-17267	-474	
133888	40	0.00	79	103.58	21.70	1	-4	0	630	-16568	548	
134013	40	0.00	85	109.04	21.70	0	-3	2	1101	-16513	1558	
134137	40	0.00	90	113.97	21.70	0	-3	2	-225	-14435	714	
134262	40	0.00	96	119.53	21.70	1	-3	-1	-921	-13218	-584	
134386	40	0.00	102	124.03	21.70	0	-3	0	767	-13332	-510	
134518	40	0.00	107	129.41	21.60	1	-2	0	768	-11635	-475	
134646	40	0.00	112	134.00	21.60	0	-2	0	383	-11820	1047	
134772	40	0.00	118	139.04	21.60	0	-3	0	-144	-10546	407	
134899	40	0.00	123	143.72	21.60	0	-1	1	-1531	-9432	74	
135025	40	0.00	127	146.73	21.60	0	-1	1	-2035	-9046	-678	
135152	40	0.00	132	150.79	21.60	0	-1	0	-1168	-7834	-382	
135278	40	0.00	136	154.51	21.60	0	-1	0	-569	-7159	-110	
135405	40	0.00	141	158.14	21.50	0	-1	0	48	-7653	348	
135531	40	0.00	145	160.97	21.50	0	-1	0	77	-7809	1091	
135664	40	0.00	149	165.05	21.50	0	-1	0	-153	-6455	1439	
135790	40	0.00	152	168.59	21.50	0	-1	0	-498	-6286	1740	
135917	40	0.00	156	170.63	21.50	0	0	0	-1238	-5436	1728	
136043	40	0.00	159	173.20	21.50	0	0	0	-1874	-4752	1261	
136170	40	0.00	162	175.15	21.50	0	0	0	-1688	-4504	668	
136296	40	0.00	165	177.63	21.50	0	0	0	-1542	-3869	622	
136424	40	0.00	168	180.38	21.50	0	0	0	-1307	-4407	248	
136549	40	0.00	171	182.16	21.50	0	0	0	-1392	-4271	395	
136675	40	0.00	173	184.02	21.50	0	0	0	-1214	-3911	489	
136802	40	0.00	176	185.09	21.50	0	0	0	-1121	-4227	343	
136936	40	0.00	178	186.77	21.50	0	0	0	-1174	-3239	791	
137061	40	0.00	180	188.28	21.50	0	0	0	-1274	-2509	1224	
137188	40	0.00	182	189.35	21.50	0	0	0	-1380	-2127	1616	
137315	40	0.00	183	190.32	21.50	0	0	0	-1483	-1479	2098	
137441	40	0.00	185	191.65	21.50	0	0	0	-1697	-2093	2534	
137568	40	0.00	186	192.37	21.50	0	0	0	-1955	-2006	2837	
137694	40	0.00	188	193.52	21.50	0	0	0	-2115	-2369	3260	
137821	40	0.00	189	194.14	21.50	0	0	0	-2167	-2736	3388	
137947	40	0.00	190	193.87	21.50	0	0	0	-1858	-5668	3186	
138080	40	0.00	190	193.87	21.50	0	0	0	-1040	-13219	2713	
138207	40	0.00	191	194.05	21.50	1	0	0	-229	-19733	1670	
138334	40	0.00	192	193.96	21.60	1	0	0	256	-17141	-154	
138460	40	0.00	192	193.96	21.60	1	0	-1	-704	-11183	-2192	
138587	40	0.00	192	193.43	21.60	1	0	-1	-2328	-10098	-3086	
138714	40	0.00	192	192.72	21.60	1	0	-1	-3716	-13310	-3181	
138840	40	0.00	192	192.28	21.60	0	0	-2	-4685	-24305	-1961	
138967	40	0.00	192	192.37	21.60	0	0	-2	-4967	-32768	-388	
139146	40	0.00	192	191.83	21.60	-1	0	-2	-5466	-13246	-2395	
139280	40	0.00	192	190.86	21.60	-2	0	-1	-6562	-17146	-2964	
139406	40	0.00	191	190.15	21.60	-2	0	0	-8977	-12890	-1861	
139533	40	0.00	191	189.70	21.60	-2	0	3	-10612	-11373	-1722	
139663	40	0.00	190	189.17	21.60	-5	0	5	-9647	-10867	-3548	
139793	60	0.00	190	187.84	21.60	0	0	6	-8235	-32768	-4209	
139919	60	0.00	192	199.03	21.60	6	0	8	-4436	-32768	-871	
140046	60	0.00	190	184.02	21.60	9	0	0	-1768	-32768	-7060	
140173	60	0.00	188	181.45	21.60	5	2	-4	-7278	-32768	-11791	
140307	60	0.00	187	180.83	21.60	-5	2	-2	-15214	-32768	208	
140433	60	0.00	185	179.32	21.60	0	2	5	2165	-32768	12879	
140559	60	0.00	183	176.04	21.60	-13	15	-5	7779	-32768	-32768	
140686	60	0.00	181	172.84	21.60	2	0	-9	32767	-3285	32565	
140813	60	0.00	179	172.93	21.60	9	10	-14	-3802	-10437	1580	
140940	60	0.00	178	171.69	21.60	1	5	-1	-27450	-8378	-11317	
141066	60	0.00	176	171.25	21.60	0	7	7	-7236	6653	-7781	
141193	60	0.00	175	170.72	21.60	0	9	1	18275	23633	-1856	
141319	60	0.00	174	169.65	21.60	6	10	-5	13329	27024	-1036	
141452	60	0.00	173	169.21	21.60	6	8	-2	8221	20076	-20477	
141579	60	0.00	172	169.12	21.60	0	10	-2	14109	23584	-21108	
141706	60	0.00	171	168.41	21.60	0	9	-4	8480	14345	-8267	
141832	60	0.00	170	167.88	21.60	1	7	-3	-268	111	-6619	
141959	60	0.00	170	167.88	21.60	3	7	-1	-5928	-2007	-13585	
142086	60	0.00	169	167.08	21.60	1	7	-2	-10692	-2395	-22528	
142213	60	0.00	169	167.00	21.60	-4	9	-4	-20953	-6322	-17235	
142339	60	0.00	168	166.38	21.60	-7	8	-1	-28686	27668	4002	
142466	60	0.00	167	165.49	21.60	-1	7	0	-29679	32767	-2965	
142599	60	0.00	167	165.13	21.60	-5	8	0	-14438	32767	-9579	
142726	60	0.00	167	166.11	21.50	-1	8	-2	-13590	32767	-8311	
142853	60	0.00	166	164.96	21.50	0	5	-1	-13504	27888	-14896	
142979	60	0.00	166	164.87	21.50	-4	5	-5	-15674	24966	-13881	
143106	60	0.00	165	164.07	21.50	-4	4	-6	-28799	32767	-9704	
143233	60	0.00	165	164.07	21.50	-5	5	-3	-29771	32767	-19754	
143359	60	0.00	165	163.27	21.50	-6	7	-3	-8711	32767	-19332	
143486	60	0.00	164	162.57	21.50	-1	7	-2	1576	32767	-10121	
143619	60	0.00	164	162.12	21.50	0	7	0	7349	32767	-924	
143746	60	0.00	163	163.19	21.50	0	7	2	7010	32767	10223	
143873	60	0.00	163	161.86	21.50	-5	6	1	-4039	32767	21929	
143999	60	0.00	163	161.77	21.50	-6	5	0	-24337	32767	17253	
144126	60	0.00	162	161.15	21.50	-6	6	0	-29533	32767	1957	
144253	60	0.00	162	160.80	21.50	-5	7	0	-24551	32767	-3757	
144379	60	0.00	161	160.00	21.50	-3	6	0	-10427	32767	-9983	
144506	70	0.00	161	159.64	21.50	0	7	-2	133	32767	-7372	
144632	70	0.00	161	159.73	21.50	3	7	-1	4081	32767	-10971	
144765	70	0.00	160	158.23	21.50	3	7	0	19647	32767	-9434	
144892	70	0.00	160	158.14	21.50	4	7	0	23308	32767	6849	
145018	70	0.00	159	157.79	21.50	4	7	4	23327	32767	11886	
145145	70	0.00	159	157.87	21.50	2	7	2	19068	32767	22589	
145271	70	0.00	158	157.34	21.50	2	7	2	4993	32767	23092	
145451	70	0.00	158	156.81	21.50	-1	7	2	-4321	32767	12773	
145578	70	0.00	157	155.66	21.50	-1	6	-1	-12301	32767	8503	
145704	70	0.00	157	156.81	21.50	0	7	-2	-17436	32767	-5840	
145832	70	0.00	157	155.84	21.50	-2	8	-3	-15380	32767	-14251	
145965	70	0.00	156	155.48	21.50	-3	7	-3	-21289	23384	-13776	
146092	70	0.00	156	154.78	21.50	-4	7	-1	-23964	29089	-9208	
146218	70	0.00	156	154.25	21.50	-4	7	-1	-21524	32767	-6196	
146345	70	0.00	155	154.51	21.50	-2	6	-1	-19482	32767	-7549	
146472	70	0.00	155	153.63	21.50	-2	6	-1	-15588	32767	-10223	
146598	70	0.00	154	153.36	21.50	-2	7	-2	-14207	29827	-9884	
146725	70	0.00	154	153.18	21.50	-2	7	-2	-17525	18104	-9641	
146852	70	0.00	154	153.10	21.50	-2	6	-1	-18143	13745	-8984	
146978	70	0.00	153	152.30	21.50	-3	6	0	-18711	14455	-3579	
147112	70	0.00	153	152.83	21.50	-5	7	-1	-19754	16250	4183	
147239	70	0.00	153	151.86	21.50	-3	7	0	-23968	24627	14170	
147366	70	0.00	152	150.88	21.50	-2	8	2	-23491	32591	8756	
147492	70	0.00	152	151.06	21.50	-3	8	0	-17738	32767	4981	
147619	70	0.00	152	150.62	21.50	-3	8	-1	-19050	32767	798	
147745	70	0.00	151	150.18	21.50	-3	6	-2	-24884	30684	-469	
147872	70	0.00	151	149.91	21.50	-3	6	0	-24826	32759	-3041	
147999	70	0.00	151	149.91	21.50	-4	6	0	-20668	32767	-956	
148132	70	0.00	150	149.91	21.50	-2	6	0	-18935	32767	-3505	
148258	70	0.00	150	149.20	21.50	-2	6	-1	-17052	32767	-7098	
148385	70	0.00	150	149.20	21.50	-2	7	-2	-15131	30070	-9958	
148512	70	0.00	149	148.23	21.50	-3	7	-3	-22395	16911	-5612	
148638	70	0.00	149	147.88	21.50	-3	7	0	-24570	16727	-2771	
148765	70	0.00	149	147.35	21.50	-3	7	0	-20552	30575	4592	
148892	70	0.00	148	147.35	21.50	-2	7	0	-18536	32767	1678	
149019	70	0.00	148	147.17	21.50	-2	7	-1	-17975	32767	-2533	
149146	70	0.00	148	146.99	21.50	-2	7	-2	-16867	32767	-7827	
149279	70	0.00	147	146.02	21.50	-1	6	-2	-18003	26665	-10835	
149405	70	0.00	147	146.02	21.50	-2	6	-1	-16587	25235	-12654	
149532	70	0.00	147	145.67	21.50	-3	6	-2	-17497	21160	-7914	
149659	70	0.00	146	145.67	21.50	-2	6	-2	-23139	11719	-2515	
149786	70	0.00	146	144.96	21.50	-2	7	0	-24931	14325	963	
149912	70	0.00	146	144.69	21.50	-2	7	1	-20195	24969	1353	
150039	70	0.00	145	143.99	21.50	-3	7	0	-16093	30445	3561	
150165	70	0.00	145	143.63	21.50	-2	7	0	-17995	30018	3459	
150292	70	0.00	144	143.01	21.50	-3	6	-1	-22203	23711	4709	
150425	70	0.00	144	143.19	21.50	-4	6	0	-24871	30821	8559	
150552	70	0.00	144	142.39	21.50	-4	7	1	-23660	32767	7559	
150678	70	0.00	143	142.48	21.50	-3	6	0	-21659	32767	2396	
150805	70	0.00	143	141.60	21.50	-2	5	0	-16242	32767	-6905	
150932	70	0.00	142	141.25	21.50	-1	6	-2	-9773	32767	-10598	
151059	70	0.00	142	140.71	21.50	0	6	-3	-10292	32161	-15118	
151185	70	0.00	142	140.36	21.50	0	6	-1	-8421	22642	-19448	
151311	70	0.00	141	139.74	21.50	-3	7	-3	-8951	13795	-16541	
151445	70	0.00	141	138.95	21.50	-2	6	-2	-18796	2896	-7549	
151572	70	0.00	140	139.30	21.50	-3	7	0	-22823	6595	-284	
151699	70	0.00	140	139.48	21.50	-1	7	0	-20069	15039	2554	
151878	70	0.00	140	139.30	21.50	-2	7	0	-15574	24836	6781	
152004	70	0.00	139	138.95	21.50	-2	6	0	-16063	30378	4420	
152131	70	0.00	139	138.68	21.50	-3	7	0	-17719	30459	8012	
152258	70	0.00	139	138.24	21.50	-2	6	0	-21846	30320	6205	
152384	70	0.00	139	137.98	21.50	-3	8	0	-20339	32767	3208	
152511	80	0.00	138	137.18	21.50	-5	7	-1	-18951	32767	2366	
