Ms	Code	A0	CA	MA	T	AX	AY	AZ	GX	GY	GZ
0	20	0.00	0	-0.23	16.00	0	8	0	-246	-63	-41	
127	20	0.00	0	-0.06	16.00	0	7	0	-179	-282	-74	
236	20	0.00	0	-0.50	16.00	0	7	0	-240	-158	0	
345	20	0.00	0	-0.06	16.00	0	7	0	-218	18	54	
453	20	0.00	0	-0.50	16.00	0	7	0	-169	-58	103	
562	20	0.00	0	-0.77	16.00	0	7	0	-234	83	156	
670	20	0.00	0	-0.32	16.00	0	7	0	-257	-397	13	
779	20	0.00	0	-0.41	16.00	0	8	0	-332	291	-28	
887	20	0.00	0	-0.50	16.00	0	8	0	-328	-652	163	
1051	20	0.00	0	0.13	16.00	0	8	0	-218	1226	16	
1160	20	0.00	0	0.04	16.00	0	8	0	-265	99	88	
1275	20	0.00	0	-0.23	16.00	0	7	0	-264	-844	192	
1384	20	0.00	0	-0.32	16.00	0	7	0	-286	204	93	
1495	20	0.00	0	-0.50	16.00	0	7	0	277	-624	-100	
1604	20	0.00	0	-0.41	16.00	0	8	0	-163	-601	13	
1715	20	0.00	0	-0.23	16.00	0	7	0	-230	-362	-137	
1824	20	0.00	0	-0.59	16.00	0	8	0	-120	315	-141	
1934	20	0.00	0	-0.68	16.10	0	7	0	-158	184	-21	
2044	20	0.00	0	-0.15	16.00	0	8	0	-68	-138	-15	
2153	20	0.00	0	-0.59	16.00	0	7	0	-248	217	-128	
2264	20	0.00	0	-0.59	16.10	0	7	0	-191	179	130	
2373	20	0.00	0	-0.41	16.10	0	7	0	-117	-273	-48	
2489	20	0.00	0	-0.59	16.00	0	7	0	-301	-322	-157	
2600	20	0.00	0	-0.15	16.10	0	7	0	-212	-424	260	
2709	20	0.00	0	-0.59	16.10	0	7	0	-160	-195	-137	
2819	20	0.00	0	-0.77	16.00	0	7	0	-290	-393	-63	
2929	20	0.00	0	-0.32	16.10	0	7	0	-281	-163	112	
3039	20	0.00	0	-0.23	16.10	0	7	0	-105	-110	-57	
3148	20	0.00	0	-0.32	16.10	0	7	0	-244	-357	-23	
3259	20	0.00	0	-0.06	16.10	0	7	0	-345	-82	-21	
3369	20	0.00	0	-0.23	16.10	0	7	0	-102	-70	48	
3478	20	0.00	0	-0.32	16.10	0	7	0	-192	-260	-100	
3595	20	0.00	0	-0.06	16.10	0	7	0	-330	-346	21	
3704	20	0.00	0	-0.32	16.10	0	7	0	-77	-177	24	
3814	20	0.00	0	-0.41	16.10	0	7	0	-148	-154	-110	
3924	20	0.00	0	-0.23	16.10	0	7	0	-368	-346	60	
4033	20	0.00	0	-0.41	16.10	0	7	0	-170	-157	-41	
4144	20	0.00	0	-0.32	16.10	0	7	0	-98	-209	-16	
4253	20	0.00	0	-0.06	16.10	0	7	0	-340	-306	1	
4363	20	0.00	0	-0.23	16.10	0	7	0	-235	-148	-71	
4472	20	0.00	0	-0.68	16.10	0	7	0	-103	-153	8	
4582	20	0.00	0	-0.15	16.10	0	7	0	-298	-205	-27	
4692	20	0.00	0	-0.32	16.10	0	7	0	-270	-298	-25	
4809	20	0.00	0	-0.15	16.10	0	7	0	-96	-126	-49	
4919	20	0.00	0	-0.23	16.10	0	7	0	-254	-213	44	
5029	20	0.00	0	0.66	16.10	0	7	0	-270	-365	-10	
5137	20	0.00	0	1.19	16.10	0	7	0	-128	-419	-63	
5246	20	0.00	0	0.75	16.10	0	7	0	-241	-453	66	
5354	20	0.00	0	1.11	16.10	0	7	0	-364	-364	-47	
5464	20	0.00	0	0.84	16.10	0	7	0	-200	-368	-74	
5572	20	0.00	0	0.66	16.10	0	7	0	-191	-327	52	
5681	20	0.00	0	0.75	16.10	0	7	0	-240	-272	-10	
5789	20	0.00	0	0.75	16.10	0	7	0	-163	-189	-88	
5898	20	0.00	0	0.84	16.10	0	7	0	-174	9	3	
6013	20	0.00	0	1.02	16.10	0	7	0	-242	-122	30	
6122	20	0.00	0	0.66	16.10	0	7	0	-214	-251	-72	
6231	20	0.00	0	1.02	16.10	0	7	0	-167	-226	16	
6394	20	0.00	0	1.19	16.10	0	7	0	-230	-167	-11	
6502	20	0.00	0	1.11	16.10	0	7	0	-171	-193	-96	
6611	20	0.00	0	0.21	16.10	0	7	0	-213	-139	35	
6720	20	0.00	0	0.84	16.10	0	7	0	-235	-217	13	
6829	20	0.00	0	1.02	16.10	0	7	0	-210	-339	-90	
6937	20	0.00	0	0.84	16.10	0	7	0	-239	-207	1	
7046	20	0.00	0	1.02	16.20	0	7	0	-224	-207	54	
7154	20	0.00	0	1.02	16.20	0	7	0	-193	-255	-82	
7270	20	0.00	0	1.37	16.20	0	7	0	-231	-224	-8	
7379	20	0.00	0	0.93	16.20	0	7	0	-211	-202	65	
7487	20	0.00	1	1.11	16.20	0	7	0	-180	-190	-74	
7596	20	0.00	1	1.19	16.20	0	7	0	-233	-255	-35	
7704	20	0.00	1	1.37	16.20	0	7	0	-221	-197	47	
7813	20	0.00	1	1.37	16.20	0	7	0	-178	-227	-22	
7922	20	0.00	1	1.19	16.20	0	7	0	-242	-287	-28	
8031	20	0.00	1	1.02	16.20	0	7	0	-246	-235	33	
8139	20	0.00	1	0.84	16.20	0	7	0	-182	-172	8	
8248	20	0.00	1	0.93	16.20	0	7	0	-210	-252	-58	
8357	20	0.00	1	1.19	16.20	0	7	0	-285	-243	18	
8472	20	0.00	1	1.11	16.20	0	7	0	-162	-165	15	
8581	20	0.00	1	1.19	16.20	0	7	0	-189	-233	-43	
8690	20	0.00	1	0.93	16.20	0	7	0	-253	-234	9	
8799	20	0.00	1	0.75	16.20	0	7	0	-183	-166	-3	
8907	20	0.00	1	1.19	16.20	0	7	0	-180	-212	-19	
9016	20	0.00	1	0.93	16.20	0	7	0	-263	-245	-18	
9125	20	0.00	0	-0.15	16.20	0	7	0	-179	-200	-20	
9234	20	0.00	0	0.04	16.20	0	7	0	-158	-191	-8	
9343	20	0.00	0	0.04	16.20	0	7	0	-266	-259	-17	
9451	20	0.00	0	-0.06	16.20	0	7	0	-218	-228	-27	
9562	20	0.00	0	-0.15	16.20	0	7	0	-147	-177	-15	
9677	20	0.00	0	-0.41	16.20	0	7	0	-259	-201	-9	
9788	20	0.00	0	-0.68	16.20	0	7	0	-240	-241	-1	
9898	20	0.00	0	-0.23	16.20	0	7	0	-160	-209	-19	
10007	20	0.00	0	-0.50	16.20	0	7	0	-229	-215	-1	
10118	20	0.00	0	0.13	16.20	0	7	0	-249	-276	-24	
10227	20	0.00	0	-0.41	16.20	0	8	0	-187	-207	-33	
10339	20	0.00	0	-0.41	16.20	0	7	0	-223	-192	11	
10450	20	0.00	0	0.30	16.20	0	7	0	-257	-243	-24	
10560	20	0.00	0	-0.77	16.20	0	7	0	-185	-208	-49	
10671	20	0.00	0	-0.06	16.20	0	7	0	-218	-210	2	
10781	20	0.00	0	-0.06	16.20	0	7	0	-250	-260	-8	
10899	20	0.00	0	0.30	16.20	0	7	0	-205	-216	-54	
11009	20	0.00	0	-0.59	16.20	0	7	0	-190	-177	24	
11119	20	0.00	0	0.04	16.20	0	7	0	-228	-218	-20	
11229	20	0.00	0	0.04	16.20	0	7	0	-225	-251	-24	
11339	20	0.00	0	-0.59	16.20	0	7	0	-187	-181	8	
11450	20	0.00	0	-0.06	16.20	0	7	0	-217	-195	11	
11561	20	0.00	0	-0.15	16.20	0	7	0	-213	-234	-38	
11671	20	0.00	0	-0.06	16.20	0	7	0	-219	-205	-3	
11837	20	0.00	0	-0.23	16.20	0	7	0	-211	-211	-19	
11948	20	0.00	0	-0.06	16.20	0	7	0	-224	-258	-31	
12059	20	0.00	0	0.04	16.20	0	7	0	-230	-218	18	
12175	20	0.00	0	0.04	16.20	0	7	0	-207	-211	-1	
12286	20	0.00	0	0.21	16.20	0	7	0	-203	-234	-38	
12395	20	0.00	0	0.13	16.20	0	7	0	-221	-213	12	
12506	20	0.00	0	-0.23	16.20	0	7	0	-208	-196	6	
12616	20	0.00	0	-0.15	16.20	0	7	0	-211	-225	-55	
12727	20	0.00	0	0.30	16.20	0	7	0	-209	-185	10	
12837	20	0.00	0	-0.50	16.30	0	7	0	-234	-212	10	
12948	20	0.00	0	-0.15	16.30	0	7	0	-216	-273	-36	
13059	20	0.00	0	-0.23	16.30	0	7	0	-228	-214	-16	
13169	20	0.00	0	-0.15	16.20	0	7	0	-219	-209	20	
13287	20	0.00	0	-0.32	16.30	0	7	0	-170	-252	-43	
13398	20	0.00	0	-0.32	16.30	0	7	0	-245	-267	-18	
13508	20	0.00	0	-0.32	16.30	0	7	0	-217	-201	-2	
13620	20	0.00	0	0.13	16.30	0	7	0	-216	-217	-32	
13729	20	0.00	0	0.04	16.30	0	7	0	-246	-253	-6	
13839	20	0.00	0	-0.50	16.30	0	7	0	-205	-204	15	
13950	20	0.00	0	-0.59	16.30	0	7	0	-210	-237	-19	
14061	20	0.00	0	-0.68	16.30	0	7	0	-228	-236	-27	
14172	20	0.00	0	-0.06	16.30	0	7	0	-190	-205	17	
14283	20	0.00	0	-0.23	16.30	0	7	0	-182	-185	-15	
14394	20	0.00	0	0.04	16.30	0	7	0	-226	-233	-9	
14511	20	0.00	0	-0.06	16.30	0	7	0	-239	-220	-11	
14621	20	0.00	0	0.30	16.30	0	7	0	-199	-193	-29	
14731	20	0.00	0	-0.15	16.30	0	7	0	-224	-229	-3	
14842	20	0.00	0	0.04	16.30	0	7	0	-244	-207	-17	
14952	20	0.00	0	-0.15	16.30	0	7	0	-206	-200	-20	
15063	20	0.00	0	-0.32	16.30	0	7	0	-225	-212	-12	
15173	20	0.00	0	-0.95	16.30	0	7	0	-240	-248	-18	
15285	20	0.00	0	-0.50	16.30	0	7	0	-184	-224	-6	
15395	20	0.00	0	-0.23	16.30	0	7	0	-204	-220	-12	
15506	20	0.00	0	-0.06	16.30	0	7	0	-241	-258	-11	
15624	20	0.00	0	-0.23	16.30	0	7	0	-203	-218	-42	
15734	20	0.00	0	0.04	16.30	0	7	0	-221	-221	1	
15844	20	0.00	0	0.30	16.30	0	7	0	-254	-243	-20	
15955	20	0.00	0	-0.50	16.30	0	7	0	-200	-225	-32	
16065	20	0.00	0	0.48	16.30	0	7	0	-211	-226	9	
16176	20	0.00	0	-0.32	16.30	0	7	0	-234	-229	0	
16286	20	0.00	0	0.04	16.30	0	7	0	-193	-190	-28	
16396	20	0.00	0	0.04	16.30	0	7	0	-226	-207	-29	
16506	20	0.00	0	0.13	16.30	0	7	0	-219	-179	-14	
16615	20	0.00	0	0.04	16.30	0	7	0	-197	-225	-21	
16726	20	0.00	0	0.04	16.30	0	7	0	-206	-239	-15	
16841	20	0.00	0	-0.50	16.30	0	7	0	-211	-217	5	
16953	20	0.00	0	0.13	16.30	0	7	0	-214	-214	-34	
17063	20	0.00	0	-0.15	16.30	0	7	0	-200	-205	-40	
17173	20	0.00	0	-0.32	16.30	0	7	0	-215	-208	11	
17339	20	0.00	0	0.13	16.30	0	7	0	-225	-221	-44	
17449	20	0.00	0	-0.15	16.30	0	7	0	-232	-248	-16	
17559	20	0.00	0	-0.23	16.30	0	7	0	-230	-214	9	
17671	20	0.00	0	-0.50	16.30	0	7	0	-213	-248	-17	
17781	20	0.00	0	-0.59	16.30	0	7	0	-217	-201	-33	
17892	20	0.00	0	0.04	16.30	0	7	0	-221	-182	17	
18002	20	0.00	0	-0.86	16.30	0	7	0	-208	-241	-31	
18120	20	0.00	0	-0.23	16.30	0	7	0	-219	-226	-4	
18231	20	0.00	0	-0.32	16.30	0	7	0	-227	-256	1	
18342	20	0.00	0	-0.23	16.30	0	7	0	-201	-202	-31	
18452	20	0.00	0	-0.50	16.30	0	7	0	-208	-233	-9	
18564	20	0.00	0	-0.41	16.30	0	7	0	-220	-248	11	
18674	20	0.00	0	-0.59	16.30	0	7	0	-194	-211	-33	
18785	20	0.00	0	-0.32	16.40	0	7	0	-215	-221	-11	
18896	20	0.00	0	-0.23	16.30	0	7	0	-226	-240	-6	
19007	20	0.00	0	-0.50	16.30	0	7	0	-206	-223	-11	
19118	20	0.00	0	-0.41	16.30	0	7	0	-217	-219	-9	
19235	20	0.00	0	-0.50	16.30	0	7	0	-230	-223	-8	
19346	20	0.00	0	-0.23	16.40	0	7	0	-204	-236	-20	
19457	20	0.00	0	0.13	16.40	0	7	0	-225	-227	-21	
19566	20	0.00	0	-0.06	16.40	0	7	0	-222	-200	11	
19678	20	0.00	0	-0.23	16.40	0	7	0	-192	-230	-23	
19788	20	0.00	0	-0.15	16.40	0	7	0	-207	-237	1	
19899	20	0.00	0	0.21	16.40	0	7	0	-210	-184	-31	
20010	20	0.00	0	0.04	16.40	0	7	0	-206	-229	-24	
20119	20	0.00	0	-0.23	16.40	0	7	0	-216	-262	-20	
20230	20	0.00	0	0.30	16.40	0	7	0	-246	-223	-10	
20340	20	0.00	0	0.21	16.40	0	7	0	-223	-267	-40	
20456	20	0.00	0	0.13	16.40	0	7	0	-209	-231	-12	
20567	20	0.00	0	0.39	16.40	0	7	0	-232	-232	-8	
20676	20	0.00	0	0.21	16.40	0	7	0	-222	-196	-20	
20786	20	0.00	0	-0.15	16.40	0	7	0	-209	-192	-20	
20896	20	0.00	0	0.13	16.40	0	7	0	-230	-210	2	
21006	20	0.00	0	0.04	16.40	0	7	0	-217	-225	-28	
21117	20	0.00	0	0.13	16.40	0	7	0	-212	-251	-9	
21226	20	0.00	0	-0.68	16.40	0	7	0	-246	-229	-9	
21337	20	0.00	0	-0.23	16.40	0	7	0	-213	-193	-12	
21447	20	0.00	0	-0.15	16.40	0	7	0	-209	-180	-33	
21559	20	0.00	0	0.13	16.40	0	7	0	-208	-194	1	
21675	20	0.00	0	-0.23	16.40	0	7	0	-189	-191	-30	
21786	20	0.00	0	0.21	16.40	0	7	0	-213	-202	-21	
21896	20	0.00	0	0.39	16.40	0	7	0	-235	-266	22	
22006	20	0.00	0	0.30	16.40	0	7	0	-221	-224	-26	
22116	20	0.00	0	-0.15	16.40	0	7	0	-208	-249	-5	
22227	20	0.00	0	-0.15	16.40	0	7	0	-215	-219	-16	
22337	20	0.00	0	-0.23	16.40	0	7	0	-220	-250	-35	
22449	20	0.00	0	0.13	16.40	0	7	0	-231	-219	-23	
22558	20	0.00	0	0.21	16.40	0	7	0	-207	-209	-4	
22668	20	0.00	0	0.04	16.40	0	7	0	-219	-240	-12	
22839	20	0.00	0	-0.06	16.40	0	7	0	-233	-217	-9	
22951	20	0.00	0	-0.86	16.40	0	7	0	-217	-229	6	
23061	20	0.00	0	-0.23	16.40	0	7	0	-214	-249	-17	
23172	20	0.00	0	0.04	16.40	0	7	0	-207	-204	-53	
23281	20	0.00	0	-0.68	16.40	0	7	0	-208	-182	12	
23392	20	0.00	0	-0.77	16.40	0	7	0	-214	-191	-27	
23504	20	0.00	0	-0.68	16.40	0	7	0	-207	-194	-1	
23614	20	0.00	0	-0.15	16.40	0	7	0	-216	-242	8	
23725	20	0.00	0	-0.23	16.40	0	7	0	-208	-239	-3	
23836	20	0.00	0	-0.32	16.40	0	7	0	-208	-230	-37	
23947	20	0.00	0	-0.23	16.40	0	7	0	-225	-190	-36	
24065	20	0.00	0	-0.32	16.40	0	7	0	-200	-212	-28	
24175	20	0.00	0	-0.15	16.40	0	7	0	-194	-182	-23	
24287	20	0.00	0	-0.32	16.40	0	7	0	-220	-216	-19	
24397	20	0.00	0	-0.32	16.40	0	7	0	-171	-222	-24	
24508	20	0.00	0	0.04	16.40	0	7	0	-223	-238	-29	
24618	20	0.00	0	-0.50	16.40	0	7	0	-251	-214	-12	
24729	20	0.00	0	-0.32	16.40	0	7	0	-215	-218	-11	
24840	20	0.00	0	-0.50	16.40	0	7	0	-209	-217	-4	
24950	20	0.00	0	-0.41	16.50	0	7	0	-248	-188	-30	
25061	20	0.00	0	0.13	16.40	0	7	0	-204	-228	-21	
25172	20	0.00	0	-0.59	16.50	0	7	0	-211	-238	-2	
25288	20	0.00	0	-0.68	16.50	0	7	0	-229	-262	-12	
25400	20	0.00	0	-0.32	16.40	0	7	0	-247	-219	-43	
25511	20	0.00	0	-0.41	16.50	0	7	0	-209	-206	-2	
25621	20	0.00	0	0.13	16.50	0	7	0	-242	-228	-5	
25732	20	0.00	0	-0.41	16.40	0	7	0	-214	-224	-21	
25842	20	0.00	0	-0.86	16.50	0	7	0	-205	-216	2	
25954	20	0.00	0	-0.32	16.50	0	7	0	-201	-215	-7	
26065	20	0.00	0	-0.32	16.50	0	7	0	-209	-244	-31	
26175	20	0.00	0	-0.41	16.50	0	7	0	-197	-233	-21	
26286	20	0.00	0	-0.23	16.50	0	7	0	-221	-213	-1	
26403	20	0.00	0	-0.15	16.50	0	7	0	-225	-223	-34	
26514	20	0.00	0	-0.32	16.50	0	7	0	-205	-190	-30	
26626	20	0.00	0	-0.23	16.50	0	7	0	-212	-222	27	
26736	20	0.00	0	-0.23	16.50	0	7	0	-222	-221	-29	
26848	20	0.00	0	-0.41	16.50	0	7	0	-225	-231	-20	
26959	20	0.00	0	0.21	16.50	0	7	0	-207	-208	21	
27068	20	0.00	0	0.04	16.50	0	7	0	-215	-234	-29	
27179	20	0.00	0	-0.06	16.50	0	7	0	-221	-256	-12	
27289	20	0.00	0	0.13	16.50	0	7	0	-212	-176	15	
27399	20	0.00	0	0.04	16.50	0	7	0	-213	-234	-6	
27508	20	0.00	0	-0.68	16.50	0	7	0	-218	-237	-9	
27626	20	0.00	0	-0.06	16.50	0	7	0	-210	-247	15	
27737	20	0.00	0	-0.41	16.50	0	7	0	-198	-237	-36	
27848	20	0.00	0	0.13	16.50	0	7	0	-217	-222	-37	
27958	20	0.00	0	-0.41	16.50	0	7	0	-221	-220	-24	
28069	20	0.00	0	-0.32	16.50	0	7	0	-204	-199	-25	
28234	20	0.00	0	-0.32	16.50	0	7	0	-218	-203	-13	
28345	20	0.00	0	-0.32	16.50	0	7	0	-223	-230	-2	
28456	20	0.00	0	-0.68	16.50	0	7	0	-213	-231	-24	
28566	20	0.00	0	-0.68	16.50	0	7	0	-231	-241	-28	
28678	20	0.00	0	-0.77	16.50	0	7	0	-210	-200	14	
28796	20	0.00	0	-0.41	16.50	0	7	0	-221	-232	-15	
28906	20	0.00	0	-0.59	16.50	0	7	0	-217	-204	-10	
29018	20	0.00	0	-0.68	16.50	0	7	0	-220	-210	9	
29128	20	0.00	0	-0.50	16.50	0	7	0	-211	-234	-16	
29239	20	0.00	0	-0.23	16.50	0	7	0	-210	-225	-15	
29350	20	0.00	0	-0.32	16.50	0	7	0	-224	-226	-13	
29461	20	0.00	0	0.13	16.50	0	7	0	-199	-221	-13	
29571	20	0.00	0	-0.50	16.50	0	7	0	-221	-249	2	
29681	20	0.00	0	-0.32	16.50	0	7	0	-234	-226	-7	
29792	20	0.00	0	-0.15	16.50	0	7	0	-184	-211	-13	
29904	20	0.00	0	-0.23	16.50	0	7	0	-216	-223	-23	
30020	20	0.00	0	-0.41	16.50	0	7	0	-243	-235	-9	
30132	20	0.00	0	-0.50	16.50	0	7	0	-213	-205	-25	
30242	20	0.00	0	-0.68	16.50	0	7	0	-224	-205	-16	
30353	20	0.00	0	-0.41	16.50	0	7	0	-229	-201	-28	
30464	20	0.00	0	-0.41	16.50	0	7	0	-229	-232	-13	
30575	20	0.00	0	-0.59	16.50	0	7	0	-189	-261	-13	
30687	20	0.00	0	-0.68	16.50	0	7	0	-214	-261	-14	
30797	20	0.00	0	-0.95	16.50	0	7	0	-215	-223	-6	
30908	20	0.00	0	-0.86	16.50	0	7	0	-210	-189	0	
31019	20	0.00	0	-0.41	16.50	0	7	0	-201	-211	0	
31136	20	0.00	0	-1.04	16.50	0	7	0	-207	-219	-20	
31247	20	0.00	0	-0.86	16.50	0	7	0	-211	-226	-28	
31359	20	0.00	0	-0.86	16.50	0	7	0	-223	-234	-6	
31469	20	0.00	0	-0.32	16.50	0	7	0	-222	-224	-18	
31580	20	0.00	0	-0.59	16.50	0	7	0	-216	-230	-28	
31690	20	0.00	0	-0.86	16.50	0	7	0	-213	-209	-18	
31802	20	0.00	0	-0.86	16.50	0	7	0	-228	-237	-28	
31913	20	0.00	0	-0.95	16.60	0	7	0	-190	-216	-18	
32023	20	0.00	0	-0.86	16.50	0	7	0	-230	-229	3	
32134	20	0.00	0	-0.68	16.50	0	7	0	-215	-261	-20	
32245	20	0.00	0	-0.23	16.50	0	7	0	-211	-206	-35	
32363	20	0.00	0	-0.23	16.50	0	7	0	-211	-225	-15	
32474	20	0.00	0	-0.50	16.50	0	7	0	-208	-231	-26	
32585	20	0.00	0	-0.32	16.50	0	7	0	-227	-245	-12	
32696	20	0.00	0	-0.41	16.50	0	7	0	-209	-248	-6	
32807	20	0.00	0	-0.06	16.50	0	7	0	-228	-249	-14	
32917	20	0.00	0	-0.32	16.60	0	7	0	-230	-219	-18	
33029	20	0.00	0	-0.06	16.50	0	7	0	-207	-177	-14	
33139	20	0.00	0	-0.50	16.60	0	7	0	-203	-202	-22	
33250	20	0.00	0	-0.59	16.50	0	7	0	-213	-240	-4	
33362	20	0.00	0	0.04	16.60	0	7	0	-230	-218	-14	
33471	20	0.00	0	-0.50	16.60	0	7	0	-206	-238	-4	
33580	20	0.00	0	-0.32	16.50	0	7	0	-190	-230	6	
33746	20	0.00	0	-0.59	16.50	0	7	0	-219	-239	-5	
33857	20	0.00	0	0.04	16.60	0	7	0	-202	-247	-8	
33967	20	0.00	0	-0.86	16.60	0	7	0	-211	-231	-22	
34077	20	0.00	0	-0.95	16.60	0	7	0	-203	-237	-5	
34188	20	0.00	0	-0.86	16.60	0	7	0	-204	-209	-43	
34300	20	0.00	0	-0.50	16.60	0	7	0	-202	-204	-19	
34410	20	0.00	0	-0.32	16.60	0	7	0	-218	-207	-19	
34522	20	0.00	0	-0.41	16.60	0	7	0	-196	-226	-10	
34632	20	0.00	0	-0.59	16.60	0	7	0	-221	-242	-6	
34750	20	0.00	0	-0.77	16.60	0	7	0	-219	-239	-8	
34861	20	0.00	0	-0.50	16.60	0	7	0	-218	-209	-4	
34971	20	0.00	0	-0.59	16.60	0	7	0	-228	-234	-27	
35083	20	0.00	0	-0.68	16.60	0	7	0	-216	-220	-16	
35194	20	0.00	0	-0.32	16.60	0	7	0	-239	-230	-16	
35304	20	0.00	0	-1.13	16.60	0	7	0	-209	-214	-19	
35415	20	0.00	0	-0.95	16.60	0	7	0	-239	-252	5	
35526	20	0.00	0	-0.95	16.60	0	7	0	-205	-248	-14	
35637	20	0.00	0	-0.32	16.60	0	7	0	-197	-211	-12	
35747	20	0.00	0	-0.68	16.60	0	7	0	-211	-215	0	
35859	20	0.00	0	-0.68	16.60	0	7	0	-213	-232	-14	
35976	20	0.00	0	-0.59	16.60	15	-16	15	-26513	-32768	-7203	
36087	20	0.00	0	0.84	16.60	0	15	-14	7052	-32768	-6670	
36198	20	0.00	3	20.37	16.60	14	15	13	3126	-32768	-1302	
36309	40	0.00	14	58.12	16.60	-2	-16	-3	2279	-32768	9187	
36428	40	0.00	24	61.80	16.60	10	-16	-1	-2971	-32768	-4229	
36548	40	0.00	34	74.72	16.60	1	-13	3	1658	-26803	1201	
36668	40	0.00	43	81.90	16.60	1	-12	4	-2129	-28545	1324	
36788	40	0.00	52	88.10	16.60	0	-12	4	2772	-25610	465	
36908	40	0.00	61	95.02	16.60	1	-10	1	-3141	-26468	954	
37034	40	0.00	69	102.67	16.60	1	-10	0	1791	-20906	1565	
37154	40	0.00	77	108.79	16.60	0	-9	3	-847	-23161	-1053	
37275	40	0.00	84	115.81	16.70	1	-7	1	299	-18949	1818	
37396	40	0.00	92	122.66	16.70	0	-7	4	1763	-19429	755	
37517	40	0.00	99	127.44	16.70	0	-6	3	-863	-19890	816	
37638	40	0.00	106	133.49	16.60	0	-7	0	-181	-17126	1130	
37760	40	0.00	112	138.91	16.60	0	-6	2	1246	-15765	-1537	
37884	40	0.00	119	145.68	16.70	2	-6	0	-947	-15383	-184	
38006	40	0.00	125	151.11	16.60	0	-7	1	1135	-14202	1471	
38135	40	0.00	131	156.62	16.60	0	-4	1	-28	-14930	166	
38258	40	0.00	137	161.78	16.60	0	-4	2	-1508	-14994	-703	
38381	40	0.00	143	166.85	16.60	1	-3	2	977	-12446	696	
38505	40	0.00	149	171.83	16.60	0	-4	0	1086	-11423	553	
38628	40	0.00	154	176.27	16.60	1	-4	0	-961	-12910	139	
38751	40	0.00	159	180.08	16.60	0	-3	1	-1346	-12161	667	
38874	40	0.00	164	184.71	16.60	0	-3	0	-168	-11455	-210	
38997	40	0.00	169	189.15	16.60	0	-2	1	515	-11118	-889	
39120	40	0.00	174	193.42	16.60	0	-2	1	-852	-10885	-737	
39250	40	0.00	179	198.23	16.60	1	-2	0	-174	-8705	1097	
39372	40	0.00	183	201.50	16.60	0	-2	0	-141	-8776	1269	
39551	40	0.00	188	206.68	16.60	0	-1	0	-1775	-9292	-314	
39674	40	0.00	192	209.96	16.50	0	-1	0	-2327	-10091	-676	
39796	40	0.00	196	213.32	16.50	0	-1	0	-711	-8182	-626	
39919	40	0.00	200	216.60	16.50	0	-1	1	1269	-6975	-62	
40042	40	0.00	204	219.32	16.50	0	-1	0	151	-6914	369	
40165	40	0.00	208	222.51	16.50	0	-1	1	-1161	-8082	805	
40288	40	0.00	211	225.52	16.50	0	0	0	-1933	-8166	1208	
40411	40	0.00	214	228.07	16.50	0	0	0	-2083	-8029	1031	
40541	40	0.00	218	231.07	16.50	0	0	0	-1715	-7474	736	
40665	40	0.00	221	233.35	16.50	0	0	0	-1222	-6303	377	
40788	40	0.00	224	235.63	16.50	0	0	0	-890	-6095	371	
40909	40	0.00	226	237.91	16.50	0	0	0	-555	-5646	519	
41032	40	0.00	229	240.28	16.50	0	0	0	-452	-5188	971	
41155	40	0.00	231	241.56	16.50	0	0	0	-339	-5123	1397	
41278	40	0.00	234	243.47	16.50	0	0	0	-208	-4477	1812	
41401	40	0.00	236	244.48	16.50	0	0	0	53	-3564	2304	
41524	40	0.00	238	246.03	16.50	0	0	0	208	-3383	2645	
41654	40	0.00	240	247.21	16.50	0	0	0	269	-3174	2939	
41777	40	0.00	241	248.22	16.50	0	0	0	148	-3177	3348	
41900	40	0.00	243	249.68	16.50	0	0	0	107	-2928	3633	
42023	40	0.00	244	249.31	16.50	0	0	0	84	-2633	3883	
42144	40	0.00	245	250.41	16.50	0	0	0	61	-2369	4078	
42267	40	0.00	246	250.59	16.50	0	0	0	103	-1467	4298	
42390	40	0.00	247	251.59	16.50	0	0	0	166	-600	4438	
42513	40	0.00	248	251.50	16.50	0	0	0	331	-1249	4370	
42636	40	0.00	249	252.51	16.50	1	0	0	604	-3219	3991	
42760	40	0.00	249	252.14	16.50	1	0	0	988	-1758	3323	
42889	40	0.00	250	252.23	16.50	1	0	0	1154	6633	2439	
43012	40	0.00	250	252.78	16.50	2	0	0	1545	7909	1190	
43135	40	0.00	251	252.51	16.50	2	0	0	2574	-4579	-767	
43258	40	0.00	251	252.05	16.50	2	0	0	2418	-22350	-4449	
43380	40	0.00	251	251.41	16.50	3	0	-1	5	-10382	-9197	
43506	40	0.00	251	250.32	16.50	4	0	-2	-256	20539	-12837	
43633	40	0.00	250	250.41	16.50	2	0	0	8067	32767	-11911	
43759	40	0.00	250	248.95	16.50	2	0	2	10872	30202	-3981	
43885	40	0.00	250	247.85	16.50	0	0	2	8854	32767	3185	
44018	40	0.00	249	247.03	16.60	0	0	2	1305	32767	6957	
44144	60	0.00	249	247.40	16.50	0	0	3	-4955	24397	3536	
44267	60	0.00	250	258.08	16.60	-1	0	2	-6355	11305	-1329	
44390	60	0.00	249	244.38	16.50	-1	0	6	-5551	-1471	-4774	
44513	60	0.00	248	243.75	16.50	-3	0	5	-4634	-15820	-7794	
44637	60	0.00	247	243.02	16.50	2	0	7	-5223	-32768	-6444	
44760	60	0.00	245	240.28	16.50	4	0	6	-3387	-32768	-771	
44883	60	0.00	244	238.64	16.60	6	0	1	699	-32768	352	
45005	60	0.00	243	237.45	16.60	6	0	-4	963	-32768	-5167	
45128	60	0.00	241	235.27	16.60	-1	0	-5	-858	-32768	-4900	
45249	60	0.00	240	234.26	16.60	-4	0	-6	-3193	-32768	-4836	
45372	60	0.00	238	234.35	16.50	-7	0	-2	-6423	-28655	-1595	
45551	60	0.00	237	230.16	16.50	-2	1	6	-6110	-32768	6392	
45674	60	0.00	235	228.79	16.50	0	0	4	-4210	-32768	4312	
45797	60	0.00	233	225.61	16.50	8	0	2	541	-32768	9789	
45920	60	0.00	231	225.70	16.50	9	0	-4	8569	-32768	1910	
46043	60	0.00	230	223.42	16.50	3	0	-9	4192	-32768	-6884	
46166	60	0.00	229	224.42	16.50	-9	0	-9	-4563	-32768	-5128	
46296	60	0.00	227	220.69	16.50	-9	0	-4	-16723	-22449	1956	
46419	60	0.00	225	217.14	16.50	-6	0	5	-15832	-24361	10089	
46541	60	0.00	223	217.69	16.50	-3	0	7	-8933	-28628	9560	
46664	60	0.00	221	213.96	16.50	2	0	6	26	-32768	13273	
46787	60	0.00	220	212.96	16.50	10	0	-2	5436	-32768	7548	
46910	60	0.00	218	212.14	16.50	5	0	-9	11414	-32768	-6601	
47034	60	0.00	216	208.77	16.50	-4	1	-8	2035	-32768	-9895	
47157	60	0.00	214	208.23	16.50	-8	0	-8	-4912	-24075	-4582	
47281	60	0.00	213	205.95	16.50	-7	0	-7	-9372	-5053	-31	
47410	60	0.00	211	202.96	16.50	-6	1	-1	-12542	-7086	2530	
47533	60	0.00	208	199.59	16.50	-4	1	0	-12836	-5232	1388	
47656	60	0.00	206	198.59	16.50	-5	1	6	-11873	-1774	-2781	
47779	60	0.00	204	197.78	16.50	-4	2	9	-6592	-3736	-3356	
47902	60	0.00	203	196.05	16.50	-5	1	7	191	6281	-3272	
48025	60	0.00	201	193.60	16.50	-8	1	6	9224	12281	-621	
48151	60	0.00	199	190.24	16.50	-6	1	-2	13608	10719	3016	
48277	60	0.00	196	188.25	16.50	-5	1	-7	8916	20779	3716	
48403	70	0.00	194	185.61	16.50	-1	1	-7	7278	18946	5231	
48533	70	0.00	192	183.08	16.50	0	0	-10	6405	12997	12310	
48656	70	0.00	190	182.26	16.50	4	0	-15	2829	-18051	19643	
48779	70	0.00	188	181.44	16.50	0	0	-15	3936	-32768	19517	
48903	70	0.00	186	180.35	16.50	-8	0	-12	8272	-31621	24228	
49026	70	0.00	184	176.36	16.50	-4	-1	-13	10938	-14855	25397	
49150	70	0.00	182	172.92	16.40	-4	0	-12	10351	-8415	32696	
49272	70	0.00	180	172.29	16.40	2	-1	-14	3672	-4767	32767	
49395	70	0.00	178	170.75	16.40	7	-2	-15	-196	-32768	31881	
49518	70	0.00	176	168.84	16.40	-3	-1	-14	8503	-32768	24917	
49648	70	0.00	174	166.67	16.40	-3	0	-13	4804	12391	25734	
49771	70	0.00	172	163.23	16.40	3	-1	-9	-14155	20618	28102	
49894	70	0.00	170	163.05	16.40	9	-3	-3	-25439	20869	18247	
50018	70	0.00	168	161.06	16.40	9	0	1	-20270	31416	-4232	
50141	70	0.00	166	157.53	16.40	10	0	3	-18796	-3636	-19824	
50264	70	0.00	164	155.27	16.40	9	15	15	32767	11796	-20687	
50387	70	0.00	161	152.46	16.40	-3	15	-13	-7466	21378	18285	
50509	70	0.00	159	149.84	16.40	6	14	8	8162	9969	9273	
50632	70	0.00	157	149.03	16.40	7	5	-3	13227	24829	-3238	
50762	70	0.00	155	149.03	16.40	11	7	6	15563	-12537	-32768	
50885	70	0.00	154	148.03	16.40	-4	9	0	13359	-15691	-32768	
51008	70	0.00	152	147.49	16.40	-11	7	-3	-14339	-32768	3572	
51132	70	0.00	151	146.77	16.40	-2	8	0	-7643	-15208	28658	
51255	70	0.00	150	146.50	16.40	4	7	-2	-6388	-19688	24187	
51379	70	0.00	149	145.77	16.40	4	7	1	-5448	-23470	12421	
51557	70	0.00	148	144.60	16.40	3	5	1	9394	-32768	-18334	
51680	70	0.00	147	144.51	16.40	0	6	0	1448	-28937	-27255	
51803	70	0.00	147	144.24	16.40	-4	8	0	-7878	-24263	-15836	
51933	70	0.00	146	143.52	16.40	-4	7	-1	-10739	-21064	5207	
52056	70	0.00	145	142.79	16.40	-1	6	0	-9722	-23693	18129	
52179	70	0.00	145	142.70	16.40	0	7	2	904	-19182	23082	
52301	70	0.00	144	141.80	16.40	4	6	2	17061	-11943	13910	
52424	70	0.00	143	141.35	16.40	5	6	0	22215	4686	-2662	
52548	70	0.00	143	140.89	16.40	2	6	-2	16957	1879	-9410	
52671	70	0.00	142	140.62	16.40	1	7	-2	10398	-2706	-13983	
52794	70	0.00	142	140.08	16.40	1	7	-3	3879	-6041	-17969	
52917	70	0.00	141	139.27	16.40	0	7	-5	-14847	-1293	-20558	
53047	70	0.00	141	139.36	16.40	-3	6	-2	-25937	2077	-14780	
53170	70	0.00	140	138.73	16.40	-4	7	0	-25346	31710	-608	
53293	70	0.00	140	138.01	16.40	-4	7	0	-23080	32767	-2897	
53416	70	0.00	139	137.73	16.40	-1	6	0	-21405	32767	-4738	
53538	70	0.00	139	137.10	16.40	-4	6	-1	-15231	32767	-8939	
53662	70	0.00	138	136.38	16.40	-1	6	-2	-13094	32767	-8964	
53785	70	0.00	138	135.84	16.40	0	6	-2	-8831	32767	-15410	
53908	70	0.00	137	135.03	16.40	0	7	-2	-6209	32767	-19044	
54031	70	0.00	136	134.57	16.40	0	7	-4	-5181	23475	-22120	
54161	70	0.00	136	134.03	16.40	0	6	-3	-12760	27222	-21835	
54284	70	0.00	135	133.76	16.40	-3	6	-4	-13704	32767	-20178	
54407	70	0.00	135	132.86	16.40	-2	6	-3	-11656	32767	-18650	
54531	70	0.00	134	132.59	16.40	0	7	-3	-6175	32767	-20499	
54654	70	0.00	134	132.14	16.40	0	7	-2	590	32767	-19834	
54776	70	0.00	133	131.23	16.40	0	6	-3	4004	29402	-15944	
54900	70	0.00	133	131.05	16.30	1	7	-3	-131	16634	-16408	
55023	70	0.00	132	130.06	16.30	1	7	-2	-4381	9521	-20745	
55152	70	0.00	131	129.34	16.30	-1	6	-2	-9784	3201	-20572	
55275	70	0.00	131	129.25	16.30	-4	7	-3	-16177	16185	-10003	
55399	70	0.00	130	128.98	16.30	-2	6	-2	-24466	21091	-4680	
55522	70	0.00	130	128.26	16.30	-2	6	0	-24965	28757	-6157	
55645	70	0.00	129	127.62	16.30	-3	7	0	-16410	32767	-8480	
55768	70	0.00	129	127.44	16.30	-3	7	-2	-15296	32767	-3610	
55891	70	0.00	128	126.99	16.30	-1	6	-2	-19148	31072	-6629	
56013	70	0.00	128	126.18	16.30	-1	6	-1	-17687	32135	-11754	
56137	70	0.00	127	125.37	16.30	-3	7	-2	-13685	32767	-11791	
56267	70	0.00	127	125.55	16.40	-2	7	-3	-18948	25608	-10019	
56390	80	0.00	126	124.38	16.30	-2	6	-1	-20050	27531	-11332	
