Ms	Code	A0	CA	MA	T	AX	AY	AZ	GX	GY	GZ
0	20	0.00	0	-0.51	27.40	0	-8	0	-486	-1151	92	
123	20	0.00	0	-0.25	27.40	0	-8	0	-263	-312	7	
227	20	0.00	0	-0.25	27.50	0	-8	0	-243	-194	26	
334	20	0.00	0	-0.16	27.50	0	-8	0	-286	17	-38	
441	20	0.00	0	-0.25	27.50	0	-8	0	-238	-25	11	
548	20	0.00	0	0.11	27.50	0	-8	0	-132	511	47	
655	20	0.00	0	0.02	27.50	-1	-4	0	-148	1356	-66	
760	20	0.00	0	-0.07	27.50	0	-8	0	-159	-217	33	
867	20	0.00	0	0.20	27.50	0	-8	0	-52	1188	-238	
973	20	0.00	0	-0.51	27.50	0	-8	0	7	-1045	-80	
1081	20	0.00	0	0.54	27.50	0	-8	0	-321	-392	8	
1194	20	0.00	0	-0.16	27.50	0	-8	0	-549	3642	16	
1299	20	0.00	0	0.28	27.50	0	-8	0	-224	1180	-180	
1406	20	0.00	0	-0.33	27.50	0	-7	0	-138	-217	-32	
1514	20	0.00	0	-0.60	27.50	0	-8	0	-419	351	58	
1622	20	0.00	0	-0.16	27.50	0	-8	0	-272	-323	-40	
1731	20	0.00	0	-0.07	27.50	0	-8	0	-106	-565	-34	
1838	20	0.00	0	-0.42	27.50	0	-8	0	-229	-208	26	
1947	20	0.00	0	-0.42	27.50	0	-8	0	-432	131	-16	
2056	20	0.00	0	-0.16	27.50	0	-8	0	-225	-305	-37	
2163	20	0.00	0	-0.42	27.50	0	-8	0	-87	-578	10	
2278	20	0.00	0	0.11	27.50	0	-8	0	-264	-87	-18	
2382	20	0.00	0	0.11	27.50	0	-8	0	-361	30	-45	
2489	20	0.00	0	-0.25	27.50	0	-8	0	-175	-401	27	
2597	20	0.00	0	0.11	27.50	0	-8	0	-152	-467	-32	
2704	20	0.00	0	0.20	27.50	0	-7	0	-301	-172	-24	
2811	20	0.00	0	-0.51	27.50	0	-8	0	-348	-109	14	
2920	20	0.00	0	-0.42	27.50	0	-8	0	-159	-469	-24	
3027	20	0.00	0	-0.25	27.50	0	-8	0	-177	-454	-18	
3136	20	0.00	0	-0.16	27.50	0	-8	0	-345	-114	0	
3243	20	0.00	0	-0.16	27.50	0	-8	0	-295	-165	-23	
3353	20	0.00	0	-0.33	27.50	0	-8	0	-115	-492	-22	
3503	20	0.00	0	0.20	27.50	0	-8	0	-313	-166	-22	
3608	20	0.00	0	-0.07	27.50	0	-8	0	-323	-65	-10	
3715	20	0.00	0	-0.25	27.50	0	-8	0	-190	-406	6	
3824	20	0.00	0	-0.07	27.50	0	-8	0	-160	-429	-10	
3933	20	0.00	0	0.02	27.50	0	-8	0	-319	-168	-21	
4039	20	0.00	0	-0.07	27.50	0	-8	0	-288	-141	-21	
4148	20	0.00	0	-0.25	27.50	0	-8	0	-147	-405	37	
4255	20	0.00	0	0.02	27.50	0	-8	0	-211	-320	-20	
4363	20	0.00	0	-0.07	27.50	0	-8	0	-333	-137	3	
4471	20	0.00	0	-0.16	27.50	0	-8	0	-276	-273	-3	
4579	20	0.00	0	0.20	27.50	0	-8	0	-154	-405	-2	
4692	20	0.00	0	-0.33	27.50	0	-8	0	-263	-311	1	
4798	20	0.00	0	-0.16	27.50	0	-8	0	-329	-133	3	
4905	20	0.00	0	-0.16	27.50	0	-8	0	-219	-301	-29	
5014	20	0.00	0	-0.07	27.50	0	-8	0	-159	-373	-10	
5122	20	0.00	0	0.11	27.50	0	-8	0	-291	-207	-9	
5229	20	0.00	0	0.02	27.50	0	-8	0	-321	-129	-8	
5336	20	0.00	0	-0.07	27.60	0	-8	0	-251	-368	4	
5444	20	0.00	0	0.20	27.50	0	-8	0	-216	-368	-17	
5551	20	0.00	0	-0.33	27.50	0	-8	0	-303	-150	-9	
5660	20	0.00	0	0.11	27.60	0	-8	0	-275	-199	-21	
5774	20	0.00	0	-0.42	27.60	0	-8	0	-179	-448	-18	
5878	20	0.00	0	-0.42	27.60	0	-8	0	-222	-323	12	
5987	20	0.00	0	0.20	27.60	0	-8	0	-309	-175	-21	
6094	20	0.00	0	-0.25	27.50	0	-7	0	-98	-2065	-93	
6202	20	0.00	0	-0.25	27.60	0	-8	0	-343	2275	-57	
6310	20	0.00	0	-0.69	27.60	0	-8	0	-361	-42	-18	
6418	20	0.00	0	-0.16	27.60	1	-8	0	-404	83	385	
6526	20	0.00	0	-0.16	27.50	4	-7	-1	-1653	4636	189	
6635	20	0.00	0	0.11	27.60	0	-8	0	-284	685	66	
6741	20	0.00	0	-0.60	27.60	0	-8	0	-278	-1041	-84	
6850	20	0.00	0	0.20	27.60	1	-8	0	107	-1159	111	
6964	20	0.00	0	0.20	27.60	0	-7	0	-243	-393	-50	
7067	20	0.00	0	-0.07	27.60	0	-8	0	-555	-905	-435	
7176	20	0.00	0	0.11	27.60	0	-8	0	-638	-588	-135	
7282	20	0.00	0	-0.25	27.60	0	-8	0	-327	245	36	
7391	20	0.00	0	-0.25	27.60	0	-8	0	-11	-442	179	
7499	20	0.00	0	0.20	27.60	0	-8	0	-141	-409	-43	
7606	20	0.00	0	-0.07	27.60	0	-8	0	-420	-717	-172	
7714	20	0.00	0	-0.51	27.60	0	-8	0	-183	-655	-4	
7822	20	0.00	0	-0.25	27.60	0	-8	0	25	-619	-13	
7930	20	0.00	0	0.63	27.60	0	-8	0	-351	6	76	
8038	20	0.00	0	-0.33	27.60	0	-8	0	-850	1255	19	
8152	20	0.00	0	-0.33	27.60	0	-8	0	-38	3854	-47	
8257	20	0.00	0	-0.51	27.60	0	-8	0	-113	-1135	108	
8365	20	0.00	0	-0.33	27.60	0	-8	0	28	94	-117	
8473	20	0.00	0	-0.25	27.60	0	-7	0	-194	-242	130	
8582	20	0.00	0	0.11	27.60	0	-8	0	-913	2103	-219	
8689	20	0.00	0	-0.33	27.60	0	-8	0	-308	966	-157	
8798	20	0.00	0	0.11	27.60	0	-8	0	136	-1025	302	
8904	20	0.00	0	-0.07	27.60	0	-8	-1	162	-1666	137	
9013	20	0.00	0	-0.16	27.60	1	-7	-3	-629	1812	-455	
9120	20	0.00	0	0.11	27.60	0	-8	0	-788	2140	-133	
9234	20	0.00	0	0.11	27.60	0	-7	-1	63	-8148	272	
9338	20	0.00	0	0.20	27.60	0	-8	0	94	-1245	8	
9445	20	0.00	0	0.02	27.60	0	-8	-1	109	5539	-753	
9552	20	0.00	0	-0.69	27.60	0	-8	0	-278	38	-78	
9660	20	0.00	0	-0.25	27.60	0	-8	0	-258	-508	407	
9768	20	0.00	0	0.02	27.60	0	-8	0	-283	-61	-184	
9876	20	0.00	0	-0.07	27.60	2	-8	0	-206	706	-409	
9983	20	0.00	0	-0.25	27.60	0	-7	0	-134	-2788	144	
10092	20	0.00	0	0.02	27.60	0	-8	0	-61	-349	57	
10200	20	0.00	0	0.46	27.60	0	-8	0	-142	-594	32	
10308	20	0.00	0	0.11	27.60	0	-8	0	-136	108	-58	
10460	20	0.00	0	0.02	27.60	0	-8	0	-455	-281	56	
10565	20	0.00	0	-0.25	27.60	1	-8	0	-429	-965	778	
10674	20	0.00	0	-0.07	27.60	0	-10	-1	-205	-878	376	
10783	20	0.00	0	-0.33	27.60	2	-7	0	167	677	-190	
10892	20	0.00	0	-0.69	27.60	0	-7	0	87	-1369	336	
11001	20	0.00	0	-0.07	27.60	0	-7	0	-388	3213	-332	
11111	20	0.00	0	0.11	27.60	1	-8	0	-541	549	-242	
11218	20	0.00	0	-0.16	27.60	0	-8	0	-546	-1065	-144	
11328	20	0.00	0	-0.60	27.60	0	-8	0	-229	-30	68	
11437	20	0.00	0	-0.60	27.60	1	-7	0	-404	4214	-103	
11553	20	0.00	0	-0.86	27.60	0	-7	0	-541	208	-516	
11659	20	0.00	0	0.02	27.60	1	-8	0	-896	117	-223	
11767	20	0.00	0	-0.69	27.60	0	-7	1	-439	-38	589	
11877	20	0.00	0	-0.69	27.60	1	-8	0	-167	520	66	
11985	20	0.00	0	-0.42	27.60	0	-8	0	-465	790	-217	
12095	20	0.00	0	-0.07	27.60	0	-7	0	-321	71	175	
12203	20	0.00	0	-0.60	27.60	0	-7	2	-328	-534	173	
12313	20	0.00	0	-0.33	27.60	0	-8	0	39	-2554	59	
12423	20	0.00	0	-0.16	27.60	0	-8	0	-211	-405	-34	
12531	20	0.00	0	-0.07	27.60	0	-7	0	-243	-383	25	
12641	20	0.00	0	-0.33	27.60	0	-8	0	-242	-532	-112	
12756	20	0.00	0	-0.25	27.60	1	-7	0	-557	2487	-435	
12863	20	0.00	0	-0.25	27.60	0	-7	0	-628	-257	89	
12971	20	0.00	0	-0.25	27.60	0	-7	0	283	72	578	
13081	20	0.00	0	0.20	27.60	0	-8	0	-215	-319	-472	
13190	20	0.00	0	-0.16	27.60	0	-8	0	-737	-5689	-177	
13299	20	0.00	0	-0.07	27.60	1	-8	0	-639	3142	501	
13408	20	0.00	0	-0.33	27.60	0	-7	-1	800	1203	150	
13516	20	0.00	0	-0.77	27.60	0	-8	0	520	-3887	-56	
13626	20	0.00	0	-0.42	27.60	0	-8	0	-218	-1080	-547	
13735	20	0.00	0	-0.42	27.60	0	-7	0	-912	5562	-238	
13851	20	0.00	0	-0.60	27.60	4	-8	-2	-1026	538	450	
13956	20	0.00	0	-0.16	27.60	0	-8	-1	-240	-608	207	
14066	20	0.00	0	-0.25	27.60	0	-8	0	-184	-711	-875	
14176	20	0.00	0	-0.07	27.60	0	-7	0	-753	-592	-274	
14284	20	0.00	0	0.02	27.60	0	-8	0	-455	-2432	536	
14393	20	0.00	0	-0.33	27.60	0	-8	0	-74	-125	357	
14502	20	0.00	0	-0.16	27.60	0	-8	0	31	43	-154	
14611	20	0.00	0	0.02	27.60	0	-8	0	-503	755	-189	
14719	20	0.00	0	0.46	27.60	3	-9	-1	647	2580	-591	
14827	20	0.00	0	0.02	27.60	1	-8	0	579	-1833	230	
14943	20	0.00	0	-0.16	27.60	0	-7	0	-59	-2510	-99	
15048	20	0.00	0	-0.25	27.60	-1	-8	-1	-374	3363	-323	
15158	20	0.00	0	0.28	27.60	1	-7	0	-619	1092	234	
15265	20	0.00	0	-0.16	27.60	0	-7	0	-89	-4209	255	
15375	20	0.00	0	0.02	27.60	0	-8	-1	54	-3175	-174	
15483	20	0.00	0	-0.25	27.60	0	-8	0	-485	-4717	-15	
15592	20	0.00	0	0.20	27.60	0	-7	0	-465	-885	-92	
15700	20	0.00	0	-0.16	27.60	1	-8	0	-102	3849	-52	
15809	20	0.00	0	0.02	27.60	0	-7	0	27	-3483	23	
15917	20	0.00	0	0.20	27.60	0	-7	2	-166	-1559	398	
16033	20	0.00	0	-0.07	27.60	0	-8	-1	-1576	13465	-74	
16139	20	0.00	0	-0.25	27.60	1	-8	0	725	-6442	-904	
16248	20	0.00	0	-0.25	27.60	1	-7	0	331	-686	168	
16358	20	0.00	0	-0.33	27.60	0	-8	1	-514	-1756	567	
16466	20	0.00	0	-0.07	27.60	0	-8	0	-614	6032	-371	
16576	20	0.00	0	-0.16	27.60	0	-8	0	7	-5042	-806	
16685	20	0.00	0	0.20	27.60	0	-8	1	-50	-898	199	
16793	20	0.00	0	-0.16	27.60	0	-8	0	-184	1396	583	
16903	20	0.00	0	-0.25	27.60	0	-8	0	-242	-2029	-244	
17011	20	0.00	0	-0.25	27.70	1	-8	0	-223	-1601	-332	
17128	20	0.00	0	0.11	27.60	0	-8	0	-181	-793	98	
17232	20	0.00	0	-0.07	27.60	0	-8	0	-297	99	214	
17342	20	0.00	0	-0.07	27.60	0	-8	0	-222	-363	-197	
17488	20	0.00	0	-0.16	27.70	2	-7	0	239	-7089	474	
17594	20	0.00	0	-0.33	27.70	0	-8	0	-59	-471	750	
17703	20	0.00	0	0.02	27.60	0	-7	0	-488	411	-108	
17811	20	0.00	0	0.11	27.60	0	-8	0	-515	-1144	-491	
17919	20	0.00	0	0.02	27.70	0	-7	0	389	-2351	-134	
18028	20	0.00	0	0.02	27.60	3	-8	-2	-642	-2188	398	
18135	20	0.00	0	0.20	27.70	0	-8	-2	-172	2865	263	
18244	20	0.00	0	-0.16	27.70	0	-8	0	291	-12311	-199	
18360	20	0.00	0	-0.25	27.70	-1	-8	1	-1099	3815	-709	
18466	20	0.00	0	0.20	27.70	1	-7	-1	-16	-2139	-137	
18574	20	0.00	0	-0.51	27.70	0	-8	-1	-691	-379	-65	
18683	20	0.00	0	-0.16	27.70	0	-8	0	-341	-1788	135	
18793	20	0.00	0	-0.16	27.70	0	-7	0	-222	994	409	
18901	20	0.00	0	-0.42	27.70	1	-8	-2	-653	10424	-580	
19011	20	0.00	0	-0.16	27.70	1	-8	0	259	-1179	-210	
19119	20	0.00	0	-0.51	27.70	1	-7	0	-492	3966	285	
19229	20	0.00	0	-0.51	27.70	0	-8	0	-607	-3236	123	
19339	20	0.00	0	-0.69	27.70	0	-8	0	-819	2008	507	
19454	20	0.00	0	-0.51	27.70	0	-8	0	218	709	-445	
19560	20	0.00	0	-0.86	27.70	1	-8	-1	-367	-1911	-52	
19669	20	0.00	0	-0.60	27.70	1	-8	0	-272	-3472	33	
19778	20	0.00	0	-0.07	27.70	0	-8	0	-632	585	32	
19887	20	0.00	0	-0.51	27.70	0	-8	0	-291	-527	255	
19997	20	0.00	0	-0.60	27.70	1	-8	0	-249	281	96	
20106	20	0.00	0	-0.25	27.70	0	-8	0	-269	967	-4	
20215	20	0.00	0	-0.60	27.70	0	-8	0	-126	-734	-73	
20325	20	0.00	0	0.11	27.70	0	-8	0	-269	-453	40	
20432	20	0.00	0	-0.33	27.70	0	-8	0	-344	86	19	
20548	20	0.00	0	-0.33	27.70	0	-8	0	-249	-308	-20	
20654	20	0.00	0	0.02	27.70	0	-8	0	-166	-463	-23	
20762	20	0.00	0	-0.07	27.70	0	-8	0	-257	-193	16	
20872	20	0.00	0	0.28	27.70	0	-8	0	-314	-160	-28	
20980	20	0.00	0	-0.42	27.70	0	-8	0	-184	-379	21	
21089	20	0.00	0	-0.33	27.70	0	-8	0	-181	-348	-17	
21198	20	0.00	0	-0.25	27.70	0	-8	0	-294	-108	-15	
21308	20	0.00	0	-0.33	27.70	0	-8	0	-309	-190	-16	
21416	20	0.00	0	-0.16	27.70	0	-8	0	-164	-433	9	
21526	20	0.00	0	-0.25	27.70	0	-8	0	-204	-336	-25	
21642	20	0.00	0	-0.07	27.70	0	-8	0	-309	-169	19	
21747	20	0.00	0	-0.51	27.70	0	-8	0	-284	-258	-31	
21857	20	0.00	0	-0.16	27.70	0	-8	0	-185	-412	-22	
21966	20	0.00	0	-0.69	27.70	0	-8	0	-265	-267	11	
22075	20	0.00	0	-0.42	27.70	0	-8	0	-321	-136	-23	
22184	20	0.00	0	-0.51	27.70	0	-8	0	-213	-326	-12	
22294	20	0.00	0	-0.69	27.70	0	-8	0	-176	-408	22	
22402	20	0.00	0	-0.60	27.70	0	-8	0	-285	-204	-34	
22512	20	0.00	0	0.02	27.70	0	-8	0	-295	-202	-13	
22621	20	0.00	0	-0.69	27.70	0	-8	0	-178	-341	-1	
22729	20	0.00	0	-0.25	27.70	0	-8	0	-211	-361	-1	
22845	20	0.00	0	-0.07	27.70	0	-8	0	-303	-174	12	
22951	20	0.00	0	-0.25	27.70	0	-8	0	-247	-276	4	
23060	20	0.00	0	-0.25	27.70	0	-8	0	-197	-390	-8	
23169	20	0.00	0	0.02	27.70	0	-8	0	-266	-275	-12	
23278	20	0.00	0	-0.07	27.70	0	-8	0	-279	-137	-16	
23386	20	0.00	0	-0.42	27.70	0	-8	0	-254	-313	-2	
23496	20	0.00	0	-0.33	27.70	0	-8	0	-191	-394	2	
23606	20	0.00	0	-0.07	27.70	0	-8	0	-296	-214	3	
23714	20	0.00	0	0.02	27.70	0	-8	0	-294	-171	27	
23823	20	0.00	0	-0.07	27.70	0	-8	0	-191	-339	-5	
23938	20	0.00	0	-0.25	27.70	0	-8	0	-181	-321	-17	
24045	20	0.00	0	0.11	27.70	0	-8	0	-300	-181	0	
24153	20	0.00	0	-0.25	27.70	0	-8	0	-256	-251	-13	
24262	20	0.00	0	-0.51	27.70	0	-8	0	-209	-346	-6	
24371	20	0.00	0	-0.33	27.70	0	-8	0	-255	-274	-10	
24517	20	0.00	0	-0.16	27.70	0	-8	0	-299	-206	-12	
24623	20	0.00	0	-0.07	27.70	0	-8	0	-217	-334	-49	
24732	20	0.00	0	-0.33	27.70	0	-8	0	-208	-314	-7	
24842	20	0.00	0	-0.07	27.70	0	-8	0	-288	-212	9	
24950	20	0.00	0	0.02	27.70	0	-8	0	-276	-251	0	
25059	20	0.00	0	0.20	27.70	0	-8	0	-203	-384	-14	
25173	20	0.00	0	-0.42	27.70	0	-8	0	-211	-273	-5	
25280	20	0.00	0	-0.60	27.70	0	-8	0	-284	-192	-24	
25388	20	0.00	0	-0.25	27.70	0	-8	0	-253	-270	9	
25498	20	0.00	0	-0.25	27.70	0	-8	0	-206	-364	-25	
25608	20	0.00	0	-0.16	27.70	0	-8	0	-251	-228	-14	
25716	20	0.00	0	-0.25	27.70	0	-8	0	-315	-263	-4	
25826	20	0.00	0	-0.16	27.70	0	-8	0	-225	-311	-18	
25935	20	0.00	0	0.28	27.70	0	-8	0	-216	-342	18	
26043	20	0.00	0	-0.07	27.70	0	-8	0	-280	-229	-3	
26152	20	0.00	0	0.02	27.70	0	-8	0	-261	-193	-26	
26267	20	0.00	0	0.02	27.70	0	-8	0	-196	-353	3	
26371	20	0.00	0	-0.33	27.70	0	-8	0	-218	-305	-12	
26481	20	0.00	0	-0.07	27.70	0	-7	0	-298	-216	-26	
26591	20	0.00	0	0.02	27.70	0	-8	0	-242	-273	2	
26698	20	0.00	0	-0.07	27.70	0	-8	0	-183	-344	0	
26808	20	0.00	0	-0.33	27.70	0	-8	0	-270	-289	-11	
26917	20	0.00	0	-0.69	27.70	0	-8	0	-282	-230	-4	
27026	20	0.00	0	-0.25	27.70	0	-8	0	-237	-295	-5	
27135	20	0.00	0	-0.51	27.70	0	-8	0	-223	-326	-5	
27244	20	0.00	0	-0.07	27.70	0	-8	0	-263	-225	9	
27353	20	0.00	0	-0.95	27.70	0	-8	0	-262	-248	2	
27469	20	0.00	0	-0.51	27.70	0	-8	0	-218	-327	-11	
27576	20	0.00	0	-0.77	27.70	0	-8	0	-220	-317	-12	
27684	20	0.00	0	-0.33	27.70	0	-8	0	-300	-237	-11	
27794	20	0.00	0	-0.51	27.70	0	-8	0	-273	-256	3	
27903	20	0.00	0	-0.25	27.70	0	-8	0	-193	-297	-12	
28012	20	0.00	0	-0.07	27.70	0	-8	0	-227	-298	4	
28121	20	0.00	0	-0.69	27.70	0	-8	0	-265	-223	-9	
28231	20	0.00	0	0.02	27.70	0	-8	0	-253	-306	-6	
28339	20	0.00	0	-0.07	27.70	0	-8	0	-222	-319	-31	
28448	20	0.00	0	-0.25	27.80	0	-8	0	-269	-250	-27	
28564	20	0.00	0	0.11	27.80	0	-8	0	-274	-220	2	
28668	20	0.00	0	-0.07	27.80	0	-8	0	-204	-306	-7	
28778	20	0.00	0	-0.95	27.80	0	-8	0	-225	-319	9	
28887	20	0.00	0	-0.07	27.80	0	-8	0	-240	-280	26	
28996	20	0.00	0	0.02	27.80	0	-8	0	-251	-216	-4	
29105	20	0.00	0	-0.07	27.80	0	-8	0	-251	-289	15	
29214	20	0.00	0	-0.60	27.80	0	-8	0	-257	-285	-31	
29323	20	0.00	0	-0.25	27.80	0	-8	0	-264	-210	-13	
29432	20	0.00	0	-0.69	27.80	0	-8	0	-242	-301	3	
29541	20	0.00	0	-0.07	27.80	0	-8	0	-209	-326	-18	
29651	20	0.00	0	0.11	27.80	0	-8	0	-264	-260	8	
29765	20	0.00	0	0.02	27.80	0	-8	0	-278	-231	13	
29870	20	0.00	0	-0.07	27.80	0	-8	0	-235	-248	-13	
29979	20	0.00	0	0.11	27.80	0	-8	0	-244	-292	-12	
30088	20	0.00	0	-0.16	27.80	0	-8	0	-264	-268	1	
30196	20	0.00	0	-0.25	27.80	0	-8	0	-268	-249	6	
30306	20	0.00	0	-0.07	27.80	0	-8	0	-248	-311	-16	
30415	20	0.00	0	-0.33	27.80	0	-8	0	-239	-286	-1	
30524	20	0.00	0	-0.60	27.80	0	-8	0	-263	-240	-14	
30633	20	0.00	0	-0.25	27.80	0	-8	0	-262	-267	6	
30743	20	0.00	0	-0.25	27.80	0	-8	0	-228	-313	-10	
30859	20	0.00	0	-0.33	27.80	0	-8	0	-251	-257	2	
30964	20	0.00	0	-0.25	27.80	0	-8	0	-246	-248	-2	
31074	20	0.00	0	-0.33	27.80	0	-8	0	-234	-303	10	
31183	20	0.00	0	-0.60	27.80	0	-8	0	-257	-324	-2	
31292	20	0.00	0	-0.42	27.80	0	-8	0	-253	-243	-17	
31401	20	0.00	0	-0.25	27.80	0	-8	0	-264	-271	-38	
31548	20	0.00	0	-0.33	27.80	0	-8	0	-247	-297	-31	
31653	20	0.00	0	-0.16	27.80	0	-8	0	-260	-259	-30	
31763	20	0.00	0	-0.25	27.80	0	-8	0	-250	-290	-9	
31871	20	0.00	0	-0.33	27.80	0	-8	0	-272	-282	0	
31981	20	0.00	0	0.02	27.80	0	-8	0	-236	-311	-43	
32086	20	0.00	0	-0.33	27.80	0	-8	0	-257	-271	12	
32198	20	0.00	0	0.11	27.80	0	-8	0	-266	-278	-22	
32307	20	0.00	0	-0.07	27.80	0	-8	0	-238	-280	-6	
32416	20	0.00	0	0.02	27.80	0	-8	0	-235	-292	-21	
32524	20	0.00	0	0.02	27.80	0	-8	0	-268	-215	12	
32632	20	0.00	0	-0.25	27.80	0	-8	0	-239	-299	-29	
32741	20	0.00	0	-0.16	27.80	0	-8	0	-231	-311	-1	
32850	20	0.00	0	-0.51	27.80	0	-8	0	-253	-313	-36	
32960	20	0.00	0	-0.25	27.80	0	-8	0	-245	-242	-23	
33068	20	0.00	0	-0.42	27.80	0	-8	0	-231	-300	39	
33184	20	0.00	0	-0.16	27.80	0	-8	0	-238	-296	-4	
33291	20	0.00	0	-0.25	27.80	0	-8	0	-259	-263	-32	
33400	20	0.00	0	-0.16	27.80	0	-8	0	-243	-262	-10	
33509	20	0.00	0	-0.25	27.80	0	-8	0	-221	-286	8	
33618	20	0.00	0	-0.33	27.80	0	-8	0	-245	-316	12	
33727	20	0.00	0	-0.33	27.80	0	-8	0	-244	-251	10	
33836	20	0.00	0	-0.42	27.80	0	-8	0	-267	-247	0	
33946	20	0.00	0	-0.16	27.80	0	-8	0	-247	-299	-22	
34055	20	0.00	0	-0.07	27.80	0	-8	0	-231	-262	-5	
34165	20	0.00	0	-0.07	27.80	0	-8	0	-248	-274	-12	
34280	20	0.00	0	-0.51	27.80	0	-8	0	-250	-273	1	
34386	20	0.00	0	-0.07	27.80	0	-8	0	-234	-290	-7	
34495	20	0.00	0	-0.16	27.80	0	-8	0	-272	-273	-7	
34604	20	0.00	0	0.02	27.80	0	-8	0	-255	-285	-26	
34712	20	0.00	0	-0.25	27.80	0	-8	0	-259	-309	3	
34822	20	0.00	0	-0.07	27.80	0	-8	0	-215	-309	-52	
34931	20	0.00	0	-0.16	27.80	0	-8	0	-276	-266	1	
35040	20	0.00	0	-0.16	27.80	0	-8	0	-244	-270	-9	
35149	20	0.00	0	0.11	27.80	0	-8	0	-214	-277	-6	
35258	20	0.00	0	0.28	27.80	0	-8	0	-212	-325	-9	
35365	20	0.00	0	0.02	27.80	0	-8	0	-242	-261	-10	
35480	20	0.00	0	0.02	27.80	0	-8	0	-250	-270	-31	
35585	20	0.00	0	-0.16	27.80	0	-7	0	-239	-285	-13	
35694	20	0.00	0	-0.07	27.80	0	-8	0	-253	-299	-24	
35804	20	0.00	0	-0.33	27.80	0	-8	0	-245	-250	1	
35913	20	0.00	0	-0.25	27.80	0	-8	0	-215	-274	3	
36022	20	0.00	0	0.28	27.80	0	-8	0	-233	-286	3	
36130	20	0.00	0	-0.16	27.80	0	-8	0	-266	-228	-10	
36240	20	0.00	0	0.46	27.80	0	-8	0	-249	-256	4	
36347	20	0.00	0	-0.25	27.80	0	-8	0	-222	-338	0	
36457	20	0.00	0	0.02	27.80	0	-8	0	-236	-283	1	
36572	20	0.00	0	-0.16	27.80	0	-8	0	-278	-271	-8	
36677	20	0.00	0	-0.25	27.80	0	-8	0	-250	-272	-19	
36788	20	0.00	0	-0.07	27.80	0	-8	0	-235	-256	-9	
36896	20	0.00	0	-0.33	27.80	0	-8	0	-228	-271	-28	
37005	20	0.00	0	-0.60	27.80	0	-8	0	-250	-219	6	
37114	20	0.00	0	-0.25	27.80	0	-8	0	-265	-355	4	
37224	20	0.00	0	-0.07	27.80	0	-8	0	-204	-288	-12	
37332	20	0.00	0	0.37	27.80	0	-8	0	-274	-285	1	
37441	20	0.00	0	0.02	27.80	0	-8	0	-240	-209	19	
37548	20	0.00	0	-0.25	27.80	0	-8	0	-226	-302	-36	
37658	20	0.00	0	-0.77	27.80	0	-8	0	-247	-287	18	
37774	20	0.00	0	-0.33	27.80	0	-8	0	-267	-257	7	
37880	20	0.00	0	-0.33	27.80	0	-8	0	-241	-264	-22	
37989	20	0.00	0	-0.42	27.80	0	-8	0	-227	-279	15	
38098	20	0.00	0	-0.42	27.80	0	-8	0	-272	-261	-8	
38208	20	0.00	0	0.11	27.80	0	-8	0	-276	-254	-8	
38315	20	0.00	0	0.11	27.80	0	-8	0	-239	-313	-12	
38424	20	0.00	0	0.28	27.80	0	-8	0	-264	-342	-4	
38531	20	0.00	0	0.11	27.80	0	-8	0	-253	-250	-26	
38678	20	0.00	0	-0.07	27.90	0	-8	0	-248	-263	10	
38783	20	0.00	0	0.11	27.80	0	-8	0	-237	-331	-18	
38898	20	0.00	0	-0.51	27.90	0	-8	0	-244	-267	-1	
39005	20	0.00	0	-0.51	27.90	0	-8	0	-279	-284	3	
39114	20	0.00	0	-0.25	27.80	0	-8	0	-248	-281	-28	
39223	20	0.00	0	-0.77	27.80	0	-8	0	-222	-266	-3	
39332	20	0.00	0	-0.16	27.90	0	-8	0	-237	-229	5	
39441	20	0.00	0	-0.16	27.90	0	-8	0	-245	-302	-19	
39551	20	0.00	0	-0.07	27.90	0	-8	0	-251	-329	11	
39660	20	0.00	0	0.28	27.90	0	-8	0	-218	-275	-8	
39767	20	0.00	0	-0.42	27.90	0	-8	0	-284	-237	9	
39877	20	0.00	0	0.02	27.90	0	-8	0	-243	-284	-19	
39986	20	0.00	0	0.11	27.90	0	-8	0	-213	-316	-16	
40100	20	0.00	0	0.20	27.90	0	-8	0	-263	-260	-13	
40205	20	0.00	0	-0.25	27.90	0	-8	0	-270	-296	12	
40314	20	0.00	0	-0.51	27.90	0	-8	0	-225	-295	5	
40423	20	0.00	0	0.54	27.90	0	-8	0	-213	-280	0	
40531	20	0.00	0	0.37	27.90	0	-8	0	-257	-278	-5	
40640	20	0.00	0	-0.07	27.90	0	-8	0	-280	-252	-14	
40748	20	0.00	0	0.02	27.90	0	-8	0	-233	-290	26	
40857	20	0.00	0	-0.16	27.90	0	-8	0	-224	-302	-13	
40967	20	0.00	0	0.20	27.90	0	-8	0	-253	-268	13	
41074	20	0.00	0	0.37	27.90	0	-8	0	-265	-255	-10	
41189	20	0.00	0	-0.42	27.90	0	-8	0	-240	-296	-6	
41295	20	0.00	0	0.11	27.90	0	-8	0	-250	-255	-16	
41403	20	0.00	0	0.63	27.90	0	-8	0	-246	-289	3	
41511	20	0.00	0	0.54	27.90	0	-8	0	-236	-262	-28	
41620	20	0.00	0	-0.25	27.90	0	-8	0	-220	-315	4	
41728	20	0.00	0	-0.07	27.90	0	-8	0	-276	-266	-15	
41838	20	0.00	0	-0.25	27.90	0	-8	0	-230	-273	-31	
41948	20	0.00	0	-0.07	27.90	0	-8	0	-234	-321	6	
42056	20	0.00	0	0.11	27.90	0	-8	0	-250	-290	15	
42165	20	0.00	0	0.02	27.90	0	-8	0	-237	-295	-1	
42273	20	0.00	0	0.20	27.90	0	-8	0	-251	-262	-25	
42388	20	0.00	0	-0.16	27.90	0	-8	0	-242	-278	-4	
42493	20	0.00	0	0.02	27.90	0	-8	0	-243	-271	-40	
42602	20	0.00	0	-0.33	27.90	0	-8	0	-263	-294	-14	
42710	20	0.00	0	0.46	27.90	0	-8	0	-258	-283	-21	
42819	20	0.00	0	0.11	27.90	0	-8	0	-232	-290	-13	
42927	20	0.00	0	0.37	27.90	0	-8	0	-231	-216	-12	
43035	20	0.00	0	0.37	27.90	0	-7	0	-261	-273	-1	
43144	20	0.00	0	0.37	27.90	0	-8	0	-254	-267	6	
43251	20	0.00	0	0.37	27.90	0	-8	0	-245	-292	8	
43360	20	0.00	0	-0.07	27.90	0	-8	0	-258	-252	-20	
43475	20	0.00	0	0.02	27.90	0	-8	0	-240	-286	-16	
43581	20	0.00	0	0.46	27.90	0	-8	0	-244	-283	0	
43688	20	0.00	0	-0.07	27.90	0	-8	0	-252	-269	-7	
43798	20	0.00	0	-0.25	27.90	0	-8	0	-215	-268	7	
43907	20	0.00	0	0.28	27.90	0	-8	0	-224	-262	2	
44015	20	0.00	0	-0.16	27.90	0	-8	0	-259	-298	-5	
44125	20	0.00	0	-0.16	27.90	0	-8	0	-243	-267	-6	
44234	20	0.00	0	-0.51	27.90	0	-8	0	-243	-285	2	
44343	20	0.00	0	0.46	27.90	0	-8	0	-231	-294	-5	
44451	20	0.00	0	-0.25	27.90	0	-8	0	-266	-292	-12	
44561	20	0.00	0	0.54	27.90	0	-8	0	-233	-275	-10	
44675	20	0.00	0	-0.16	27.90	0	-8	0	-235	-286	-10	
44781	20	0.00	0	-0.33	27.90	0	-8	0	-236	-285	-7	
44890	20	0.00	0	-0.33	27.90	0	-8	0	-251	-261	6	
45000	20	0.00	0	0.46	27.90	0	-8	0	-227	-296	-9	
45108	20	0.00	0	-0.33	27.90	0	-8	0	-259	-278	-7	
45217	20	0.00	0	-0.16	27.90	0	-8	0	-269	-281	-31	
45326	20	0.00	0	-0.33	27.90	0	-8	0	-204	-280	-16	
45435	20	0.00	0	-0.07	27.90	0	-8	0	-241	-270	8	
45582	20	0.00	0	0.11	27.90	0	-8	0	-273	-249	5	
45686	20	0.00	0	-0.25	27.90	0	-7	0	-210	-250	14	
45796	20	0.00	0	-0.69	27.90	0	-8	0	-261	-290	-1	
45902	20	0.00	0	0.02	27.90	0	-8	0	-253	-279	-19	
46013	20	0.00	0	-0.25	27.90	0	-8	0	-216	-271	-7	
46122	20	0.00	0	-0.69	27.90	0	-8	0	-257	-289	-13	
46232	20	0.00	0	0.28	27.90	0	-8	0	-228	-287	-8	
46339	20	0.00	0	-0.51	27.90	0	-8	0	-240	-268	-9	
46449	20	0.00	0	-0.51	27.90	0	-8	0	-247	-250	1	
46559	20	0.00	0	-0.25	27.90	0	-8	0	-243	-282	-4	
46667	20	0.00	0	-0.51	27.90	0	-8	0	-245	-240	-37	
46777	20	0.00	0	0.28	27.90	0	-8	0	-239	-293	-7	
46884	20	0.00	0	-0.07	27.90	0	-8	0	-223	-292	-13	
47001	20	0.00	0	-0.07	27.90	0	-8	0	-244	-261	-10	
47106	20	0.00	0	-0.60	27.90	0	-7	0	-279	-269	-3	
47216	20	0.00	0	-0.07	27.90	0	-8	0	-242	-257	-2	
47325	20	0.00	0	-0.33	27.90	0	-8	0	-256	-271	1	
47434	20	0.00	0	-0.07	27.90	0	-8	0	-222	-253	-8	
47544	20	0.00	0	-0.77	27.90	0	-8	0	-248	-299	21	
47652	20	0.00	0	-0.16	27.90	0	-8	0	-258	-271	-17	
47763	20	0.00	0	-0.16	27.90	0	-8	0	-230	-273	-10	
47871	20	0.00	0	0.20	27.90	0	-8	0	-230	-309	25	
47979	20	0.00	0	0.02	27.90	0	-8	0	-278	-250	-14	
48094	20	0.00	0	-0.51	27.90	0	-8	0	-269	-290	1	
48200	20	0.00	0	0.11	27.90	0	-8	0	-220	-309	-4	
48308	20	0.00	0	0.20	27.90	0	-8	0	-242	-270	-10	
48416	20	0.00	0	-0.25	27.90	0	-8	0	-262	-286	-30	
48526	20	0.00	0	-0.25	27.90	0	-8	0	-261	-257	-6	
48634	20	0.00	0	-0.60	27.90	0	-8	0	-257	-290	4	
48744	20	0.00	0	0.81	27.90	0	-8	0	-255	-245	-5	
48852	20	0.00	0	-0.33	27.90	0	-8	0	-257	-335	-19	
48961	20	0.00	0	-0.33	27.90	0	-8	0	-251	-260	-16	
49070	20	0.00	0	0.46	27.90	0	-8	0	-252	-262	9	
49178	20	0.00	0	0.37	27.90	0	-8	0	-263	-263	-3	
49294	20	0.00	0	0.02	27.90	0	-8	0	-267	-270	-5	
49398	20	0.00	0	-0.16	27.90	0	-8	0	-225	-305	3	
49508	20	0.00	0	-0.25	27.90	0	-8	0	-245	-284	-5	
49616	20	0.00	0	0.02	27.90	0	-8	0	-250	-261	11	
49725	20	0.00	0	0.20	28.00	0	-8	0	-243	-262	41	
49833	20	0.00	0	0.46	28.00	0	-8	0	-257	-293	20	
49941	20	0.00	0	-0.16	27.90	0	-8	0	-260	-281	2	
50050	20	0.00	0	-0.16	27.90	0	-8	0	-272	-326	-28	
50160	20	0.00	0	0.11	27.90	0	-8	0	-244	-309	9	
50268	20	0.00	0	-0.07	27.90	0	-8	0	-222	-258	-1	
50377	20	0.00	0	-0.07	28.00	0	-8	0	-247	-255	0	
50485	20	0.00	0	0.37	28.00	0	-8	0	-238	-251	-27	
50594	20	0.00	0	-0.25	28.00	0	-8	0	-216	-278	9	
50704	20	0.00	0	0.20	27.90	0	-8	0	-246	-297	-1	
50811	20	0.00	0	-0.16	28.00	0	-8	0	-232	-297	-7	
50921	20	0.00	0	-0.42	28.00	0	-8	0	-260	-220	-13	
51030	20	0.00	0	-0.16	28.00	0	-8	0	-245	-256	12	
51139	20	0.00	0	-0.42	28.00	0	-8	0	-258	-338	-12	
51249	20	0.00	0	0.28	28.00	0	-7	0	-242	-273	-3	
51356	20	0.00	0	-0.42	28.00	0	-8	0	-248	-286	-24	
51466	20	0.00	0	-0.60	28.00	0	-8	0	-214	-298	-22	
51581	20	0.00	0	-0.25	28.00	0	-8	0	-248	-308	24	
51688	20	0.00	0	-0.60	28.00	0	-8	0	-268	-259	-13	
51796	20	0.00	0	-0.33	28.00	0	-8	0	-256	-234	-9	
51906	20	0.00	0	-0.25	28.00	0	-8	0	-230	-326	4	
52015	20	0.00	0	-0.25	28.00	0	-8	0	-247	-266	-34	
52124	20	0.00	0	-0.25	28.00	0	-8	0	-249	-233	8	
52234	20	0.00	0	-0.51	28.00	0	-8	0	-254	-309	11	
52343	20	0.00	0	-0.33	28.00	0	-8	0	-249	-285	-9	
52452	20	0.00	0	-0.42	28.00	0	-8	0	-263	-282	14	
52561	20	0.00	0	-0.42	28.00	0	-8	0	-279	-252	-1	
52715	20	0.00	0	-0.42	28.00	0	-8	0	-279	-304	1	
52820	20	0.00	0	-0.16	28.00	0	-8	0	-255	-264	21	
52930	20	0.00	0	-0.51	28.00	0	-8	0	-258	-271	-2	
53038	20	0.00	0	-0.33	28.00	0	-8	0	-251	-286	-22	
53148	20	0.00	0	-0.07	28.00	0	-8	0	-282	-264	0	
53258	20	0.00	0	-0.60	28.00	0	-8	0	-223	-272	3	
53366	20	0.00	0	-0.33	28.00	0	-8	0	-249	-285	-9	
53476	20	0.00	0	-0.42	28.00	0	-8	0	-259	-282	7	
53585	20	0.00	0	-0.33	28.00	0	-8	0	-250	-267	-6	
53694	20	0.00	0	0.02	28.00	0	-8	0	-267	-238	4	
53802	20	0.00	0	-0.16	28.00	0	-8	0	-223	-246	12	
53918	20	0.00	0	-0.42	28.00	0	-8	0	-250	-263	15	
54024	20	0.00	0	-0.25	28.00	0	-8	0	-260	-291	-6	
54133	20	0.00	0	-0.33	28.00	0	-8	0	-243	-257	-1	
54243	20	0.00	0	-0.33	28.00	0	-8	0	-243	-283	30	
54351	20	0.00	0	-0.16	28.00	0	-8	0	-252	-262	-9	
54461	20	0.00	0	-0.51	28.00	0	-8	0	-276	-247	-1	
54570	20	0.00	0	-0.07	28.00	0	-7	0	-241	-259	-37	
54679	20	0.00	0	-0.60	28.00	0	-8	0	-236	-273	-33	
54788	20	0.00	0	0.28	28.00	0	-8	0	-258	-278	-10	
54896	20	0.00	0	-0.07	28.00	0	-8	0	-262	-265	-6	
55013	20	0.00	0	0.11	28.00	0	-8	0	-257	-233	-19	
55117	20	0.00	0	-0.16	28.00	0	-8	0	-246	-298	20	
55227	20	0.00	0	-0.07	28.00	0	-8	0	-250	-320	-16	
55335	20	0.00	0	-0.16	28.00	0	-8	0	-247	-246	-7	
55445	20	0.00	0	0.11	28.00	0	-8	0	-238	-298	-37	
55553	20	0.00	0	0.20	28.00	0	-8	0	-228	-287	-8	
55661	20	0.00	0	0.46	28.00	0	-8	0	-264	-265	8	
55769	20	0.00	0	0.11	28.00	0	-8	0	-260	-255	-16	
55877	20	0.00	0	0.11	28.00	0	-8	0	-223	-315	-10	
55987	20	0.00	0	0.37	28.00	0	-8	0	-260	-322	21	
56094	20	0.00	0	0.20	28.00	0	-8	0	-218	-248	-1	
56209	20	0.00	0	0.11	28.00	0	-8	0	-241	-264	-24	
56313	20	0.00	0	0.11	28.00	0	-8	0	-242	-311	-16	
56422	20	0.00	0	0.02	28.00	0	-8	0	-262	-276	-7	
56529	20	0.00	0	0.02	28.00	0	-8	0	-255	-263	-2	
56638	20	0.00	0	-0.07	28.00	0	-8	0	-218	-296	-14	
56747	20	0.00	0	0.11	28.00	0	-8	0	-255	-297	-8	
56855	20	0.00	0	-0.25	28.00	0	-8	0	-242	-261	-24	
56964	20	0.00	0	-0.60	28.00	0	-8	0	-250	-275	-15	
57074	20	0.00	0	-0.51	28.00	0	-8	0	-223	-298	4	
57183	20	0.00	0	-0.33	28.00	0	-8	0	-260	-302	-24	
57298	20	0.00	0	-0.16	28.00	0	-8	0	-263	-252	-10	
57405	20	0.00	0	-0.25	28.00	0	-8	0	-247	-299	-26	
57514	20	0.00	0	0.37	28.00	0	-8	0	-247	-302	4	
57623	20	0.00	0	-0.25	28.00	0	-8	0	-246	-275	8	
57731	20	0.00	0	0.20	28.00	0	-8	0	-266	-262	27	
57839	20	0.00	0	0.02	28.00	0	-8	0	-253	-234	0	
57948	20	0.00	0	0.02	28.00	0	-7	0	-261	-272	-33	
58056	20	0.00	0	0.20	28.00	0	-8	0	-230	-309	-17	
58164	20	0.00	0	-0.42	28.00	0	-8	0	-269	-244	-1	
58273	20	0.00	0	-0.51	28.00	0	-8	0	-221	-301	-41	
58383	20	0.00	0	-0.07	28.00	0	-8	0	-241	-237	-16	
58498	20	0.00	0	-0.51	28.00	0	-8	0	-255	-286	16	
58604	20	0.00	0	-0.86	28.00	0	-8	0	-244	-248	12	
58713	20	0.00	0	-0.86	28.00	0	-8	0	-234	-321	-13	
58822	20	0.00	0	-0.33	28.00	0	-7	0	-261	-266	-18	
58932	20	0.00	0	-0.42	28.00	0	-8	0	-242	-303	-13	
59041	20	0.00	0	-0.16	28.00	0	-8	0	-222	-298	-1	
59150	20	0.00	0	-0.07	28.00	0	-8	0	-222	-310	8	
59259	20	0.00	0	-0.07	28.00	0	-8	0	-239	-308	14	
59369	20	0.00	0	-0.33	28.00	0	-8	0	-271	-229	-23	
59477	20	0.00	0	-0.25	28.00	0	-8	0	-230	-299	1	
59631	20	0.00	0	-0.16	28.00	0	-8	0	-225	-291	-4	
59736	20	0.00	0	-0.33	28.00	0	-8	0	-241	-273	4	
59846	20	0.00	0	-0.25	28.00	0	-8	0	-244	-274	-13	
59956	20	0.00	0	-0.33	28.00	0	-8	0	-245	-254	-1	
60064	20	0.00	0	-0.25	28.00	0	-8	0	-246	-253	-20	
60174	20	0.00	0	-0.16	28.00	0	-8	0	-258	-290	5	
60283	20	0.00	0	0.02	28.00	0	-8	0	-219	-283	-9	
60392	20	0.00	0	-0.25	28.00	0	-8	0	-217	-293	7	
60500	20	0.00	0	-0.16	28.00	0	-8	0	-273	-307	-10	
60610	20	0.00	0	0.02	28.00	0	-8	0	-258	-255	39	
60717	20	0.00	0	-0.16	28.00	0	-8	0	-239	-318	0	
60833	20	0.00	0	-0.16	28.00	0	-8	0	-229	-249	-8	
60940	20	0.00	0	0.02	28.00	0	-8	0	-274	-260	-15	
61047	20	0.00	0	-0.25	28.00	0	-8	0	-263	-269	19	
61157	20	0.00	0	-0.51	28.00	0	-8	0	-225	-274	-3	
61266	20	0.00	0	0.02	28.00	0	-8	0	-263	-269	-22	
61374	20	0.00	0	0.11	28.10	0	-8	0	-268	-295	14	
61482	20	0.00	0	-0.07	28.00	0	-8	0	-239	-313	-24	
61592	20	0.00	0	0.11	28.10	0	-8	0	-273	-199	0	
61699	20	0.00	0	-0.16	28.10	0	-8	0	-278	-281	-9	
61809	20	0.00	0	-0.16	28.00	0	-8	0	-250	-241	-12	
61925	20	0.00	0	-0.16	28.10	0	-8	0	-221	-298	-19	
62030	20	0.00	0	-0.07	28.10	0	-8	0	-240	-275	-12	
62140	20	0.00	0	-0.16	28.10	0	-8	0	-241	-279	3	
62249	20	0.00	0	-0.51	28.10	0	-8	0	-247	-303	-12	
62358	20	0.00	0	-0.33	28.10	0	-8	0	-241	-294	-21	
62467	20	0.00	0	-0.33	28.10	0	-8	0	-276	-248	9	
62577	20	0.00	0	-0.07	28.10	0	-8	0	-241	-282	10	
62686	20	0.00	0	-0.51	28.10	0	-8	0	-238	-277	-27	
62795	20	0.00	0	-0.33	28.10	0	-8	0	-244	-275	-3	
62905	20	0.00	0	-0.42	28.10	0	-8	0	-239	-299	-24	
63013	20	0.00	0	-0.25	28.10	0	-8	0	-275	-271	-2	
63130	20	0.00	0	0.02	28.10	0	-8	0	-254	-292	-5	
63234	20	0.00	0	-0.16	28.10	0	-8	0	-230	-292	-2	
63344	20	0.00	0	0.11	28.10	0	-8	0	-251	-256	-14	
63453	20	0.00	0	-0.25	28.10	0	-8	0	-243	-296	-13	
63561	20	0.00	0	0.02	28.10	0	-8	0	-236	-282	-7	
63670	20	0.00	0	-0.07	28.00	0	-8	0	-242	-271	-16	
63779	20	0.00	0	-0.25	28.10	0	-8	0	-249	-282	15	
63888	20	0.00	0	-0.16	28.10	0	-8	0	-237	-281	15	
63997	20	0.00	0	-0.25	28.10	0	-8	0	-224	-279	-20	
64106	20	0.00	0	-0.25	28.10	0	-8	0	-232	-288	9	
64223	20	0.00	0	-0.33	28.10	2	-15	1	-158	-1893	-142	
64328	20	0.00	0	-0.07	28.10	0	-16	0	-704	9019	496	
64438	20	0.00	0	0.37	28.10	0	-16	3	339	9585	517	
64545	20	0.00	0	1.77	28.10	1	-16	0	-920	12313	-679	
64654	20	0.00	1	4.85	28.10	1	-16	-5	-2170	15807	-638	
64762	20	0.00	3	12.13	28.10	-4	-16	11	-6150	26406	-4272	
64871	40	0.00	7	23.73	28.10	-2	-16	4	-3521	32767	714	
64986	40	0.00	13	35.70	28.10	7	-14	2	1141	32767	4013	
65100	40	0.00	19	42.66	28.10	4	0	0	1807	32767	-4057	
65215	40	0.00	24	47.94	28.10	-1	5	-3	730	32767	-3085	
65337	40	0.00	30	52.09	28.10	-2	4	-1	-4449	32767	-3085	
65451	40	0.00	35	56.85	28.10	-4	5	0	-4255	32767	-537	
65566	40	0.00	40	61.70	28.10	-1	4	2	-3453	32767	1577	
65681	40	0.00	45	65.94	28.10	0	3	1	-1439	32767	244	
65795	40	0.00	50	69.56	28.20	0	3	0	61	32767	-291	
65911	40	0.00	55	73.36	28.20	0	2	-1	-1433	32767	-1240	
66026	40	0.00	59	77.16	28.20	-1	2	0	-1380	32767	-2495	
66141	40	0.00	63	80.70	28.20	-2	2	0	-1370	32767	-389	
66255	40	0.00	67	83.70	28.20	-1	2	0	-2729	32767	356	
66376	40	0.00	71	88.21	28.20	-1	2	0	-2280	32767	185	
66491	40	0.00	75	91.13	28.20	0	2	0	-1712	32767	881	
66643	40	0.00	79	95.20	28.20	0	1	0	-2008	32767	587	
66758	40	0.00	83	98.30	28.20	0	1	0	-1603	32767	-372	
66873	40	0.00	86	100.78	28.20	0	1	0	-1041	32767	-572	
66988	40	0.00	90	104.15	28.30	0	2	0	-1131	32767	-437	
67104	40	0.00	93	106.28	28.30	0	1	0	-1116	32767	-470	
67220	40	0.00	96	109.20	28.30	0	1	0	-824	32767	-487	
67336	40	0.00	99	111.60	28.30	0	0	0	-599	32165	-40	
67451	40	0.00	102	114.44	28.30	0	0	0	-655	30013	682	
67575	40	0.00	105	116.83	28.30	0	0	0	-1000	28820	892	
67693	40	0.00	108	119.14	28.30	0	0	0	-1344	27752	736	
67811	40	0.00	110	121.18	28.30	0	0	0	-1618	26403	658	
67928	40	0.00	113	122.60	28.30	0	0	0	-1789	25058	476	
68046	40	0.00	115	124.73	28.30	0	0	0	-2002	23810	332	
68164	40	0.00	117	126.42	28.30	0	0	0	-2150	22958	-108	
68282	40	0.00	119	128.11	28.30	0	0	0	-2170	22117	-725	
68399	40	0.00	121	129.79	28.30	0	0	0	-1947	21562	-1277	
68518	40	0.00	123	131.57	28.30	0	0	0	-1414	20993	-1708	
68642	40	0.00	125	132.28	28.30	0	0	0	-691	20408	-1924	
68761	40	0.00	126	132.99	28.30	0	0	0	12	19668	-1954	
68879	40	0.00	128	134.59	28.30	0	0	0	693	18938	-1747	
68996	40	0.00	129	135.12	28.30	0	0	0	1383	18031	-1308	
69114	40	0.00	131	136.72	28.30	0	0	0	1944	17567	-716	
69232	40	0.00	132	137.08	28.30	0	0	0	2427	16964	49	
69350	40	0.00	133	138.06	28.30	0	0	0	2716	16640	1071	
69469	40	0.00	134	138.50	28.30	0	0	0	2753	15852	2259	
69586	40	0.00	135	138.59	28.30	0	0	0	2624	14143	3395	
69704	40	0.00	136	139.04	28.30	0	0	0	2297	14359	4409	
69828	40	0.00	136	139.04	28.30	0	0	0	1502	15952	5354	
69946	40	0.00	137	139.75	28.30	0	0	0	208	13552	5988	
70063	40	0.00	137	139.92	28.30	0	0	0	-886	9525	6433	
70182	40	0.00	138	139.75	28.30	-1	0	0	-1041	-1044	7219	
70300	40	0.00	138	139.75	28.30	-1	0	0	-578	-5459	7715	
70418	40	0.00	138	139.66	28.30	-1	0	0	1128	-15792	8032	
70536	40	0.00	138	138.86	28.30	-1	0	0	5063	-32768	7183	
70653	40	0.00	138	138.06	28.30	0	0	1	7877	-19176	4301	
70771	40	0.00	138	137.79	28.30	-1	0	1	9393	-17540	3465	
70896	40	0.00	138	137.17	28.30	0	0	1	10657	-537	3179	
71014	40	0.00	137	135.48	28.30	0	0	0	11485	-1796	3871	
71132	40	0.00	137	134.68	28.30	0	0	0	11663	-2701	3693	
71249	40	0.00	136	133.52	28.30	0	0	0	10712	-728	3269	
71368	60	0.00	135	132.46	28.30	0	0	-1	7905	1875	2681	
71489	60	0.00	136	142.42	28.30	3	0	-1	2598	2039	629	
71610	60	0.00	133	121.89	28.30	2	0	-2	-1086	12653	-677	
71732	60	0.00	130	116.65	28.30	2	0	-1	-2743	14110	-2210	
71852	60	0.00	127	113.90	28.30	2	0	1	-1006	24461	-2577	
71980	60	0.00	124	111.51	28.30	4	15	-5	14693	8017	22465	
72102	60	0.00	123	120.74	28.30	8	15	-11	32767	32767	32767	
72223	60	0.00	123	122.51	28.40	-16	-15	-16	21181	32767	20850	
72345	60	0.00	122	121.27	28.40	13	-16	-16	-25997	32767	10281	
72466	60	0.00	122	118.96	28.30	15	-14	-4	-12955	32767	15549	
72588	60	0.00	121	117.99	28.40	1	-7	0	1395	-18063	32767	
72708	60	0.00	120	117.90	28.40	-8	-6	0	2800	29073	9037	
72830	60	0.00	119	117.36	28.40	-4	-7	0	8863	32767	-12785	
72951	60	0.00	119	117.18	28.40	-7	-8	0	29084	32767	-19844	
73095	60	0.00	118	116.21	28.40	-10	-4	-10	26975	32767	18496	
73218	60	0.00	118	115.50	28.40	-4	-5	-8	-197	32767	32767	
73342	60	0.00	117	114.97	28.30	0	-6	-5	-5271	32767	21898	
73466	60	0.00	116	114.61	28.30	1	-5	-3	-4979	32767	16230	
73590	60	0.00	116	114.79	28.40	0	-7	0	-4480	18799	14650	
73714	60	0.00	115	113.55	28.40	0	-10	1	-9379	20038	11488	
73837	60	0.00	115	112.93	28.40	1	-10	2	-24704	32767	1564	
73961	60	0.00	114	112.13	28.40	4	-8	0	-25781	32767	-11903	
74085	60	0.00	114	112.13	28.40	7	-7	0	-23173	19295	-507	
74254	60	0.00	113	111.33	28.40	5	-6	-2	-17209	11969	17901	
74377	60	0.00	113	110.89	28.40	0	-8	-2	-9979	-2047	25266	
74502	60	0.00	112	110.53	28.30	-3	-8	-2	979	2935	17746	
74624	60	0.00	111	109.12	28.40	0	-8	0	1914	20067	9768	
74748	60	0.00	111	109.03	28.30	2	-8	-2	-268	6211	13466	
74872	60	0.00	110	108.94	28.30	0	-6	-5	17709	55	19595	
74995	60	0.00	110	108.58	28.30	-6	-5	-4	29944	32767	9849	
75119	60	0.00	109	107.79	28.40	-5	-5	-4	23513	32767	15630	
75243	60	0.00	109	107.17	28.40	-1	-6	-6	5336	32767	26241	
75373	60	0.00	108	106.54	28.40	0	-7	-3	-13296	32767	18867	
75494	60	0.00	108	105.92	28.40	1	-8	-3	-12227	32767	10011	
75615	60	0.00	107	105.04	28.40	1	-7	0	-11381	8957	10160	
75734	60	0.00	107	105.13	28.40	1	-7	-2	-6084	-21938	16519	
75855	60	0.00	106	105.13	28.40	0	-8	-4	8910	-28439	16480	
75975	60	0.00	106	104.15	28.40	-4	-7	-2	24630	-4371	-209	
76096	60	0.00	105	103.71	28.40	-2	-7	0	26814	31721	-7822	
76217	60	0.00	105	102.82	28.40	-4	-7	1	20260	32767	-260	
76337	60	0.00	104	102.73	28.40	-3	-6	-2	13464	32767	5451	
76463	60	0.00	104	102.11	28.30	0	-6	-2	4101	32767	15490	
76584	60	0.00	103	101.76	28.40	1	-7	-2	-8913	32767	15218	
76705	60	0.00	103	101.32	28.40	2	-7	-3	-5421	2732	19850	
76825	60	0.00	102	100.43	28.40	0	-7	-4	10234	-8565	22299	
76946	70	0.00	102	100.43	28.40	-3	-7	-2	18182	6113	14016	
77070	70	0.00	101	100.34	28.40	-3	-7	-2	16427	32767	6746	
77194	70	0.00	101	99.55	28.40	-1	-7	-2	17165	32767	10568	
77316	70	0.00	100	98.66	28.30	-2	-7	-2	16214	32369	15036	
77438	70	0.00	100	98.57	28.30	-2	-7	-3	12449	32767	14480	
77568	70	0.00	99	98.04	28.30	-1	-6	-3	13016	32707	15578	
77689	70	0.00	99	97.60	28.30	-1	-7	-2	14019	19814	17169	
77811	70	0.00	98	96.89	28.40	-2	-7	-3	17696	24712	13112	
77933	70	0.00	98	97.06	28.30	-2	-7	-2	19683	32767	12558	
78054	70	0.00	97	95.73	28.40	-2	-7	-2	15847	32767	15717	
78176	70	0.00	97	95.65	28.40	-2	-7	-3	7761	32767	16857	
78297	70	0.00	97	95.56	28.40	0	-7	-3	6388	32767	18061	
78418	70	0.00	96	95.47	28.40	0	-6	-3	8669	19616	19551	
78540	70	0.00	96	94.50	28.30	-1	-7	-3	13482	21328	17439	
78668	70	0.00	95	93.70	28.40	-2	-7	-3	15365	31340	15163	
78790	70	0.00	95	93.26	28.30	-1	-7	-2	13881	32767	16673	
78912	70	0.00	94	92.90	28.40	-1	-7	-3	8476	32767	18207	
79033	70	0.00	94	92.37	28.30	-1	-7	-3	5644	32767	17935	
79155	70	0.00	93	91.58	28.40	0	-7	-3	8182	23882	18908	
79276	70	0.00	93	91.93	28.40	-1	-6	-3	11126	20325	18499	
79398	70	0.00	92	90.78	28.30	-1	-7	-3	13144	26489	16115	
79520	70	0.00	92	90.78	28.30	-1	-7	-3	14763	31177	15733	
79641	70	0.00	91	89.89	28.40	-1	-7	-3	15841	32767	16613	
79770	70	0.00	91	89.54	28.30	-2	-7	-3	13849	32767	18587	
79891	70	0.00	91	89.19	28.40	-1	-7	-3	7230	32767	18774	
80013	70	0.00	90	88.66	28.30	0	-7	-3	4079	32767	18865	
80135	70	0.00	90	88.39	28.30	0	-6	-3	5260	22991	19361	
80255	70	0.00	89	87.86	28.40	0	-7	-3	8809	17848	18404	
80377	70	0.00	89	87.33	28.40	-1	-7	-3	13075	19720	16307	
80499	70	0.00	88	86.71	28.40	-1	-8	-3	16732	26445	15326	
80620	70	0.00	88	86.00	28.40	-2	-7	-2	16098	32767	16021	
80742	70	0.00	87	85.82	28.30	-2	-6	-3	9755	32767	16374	
80870	70	0.00	87	85.12	28.30	-1	-6	-3	4688	32767	17011	
80992	70	0.00	86	84.67	28.30	0	-6	-3	4059	26769	17650	
81112	70	0.00	86	84.58	28.30	0	-7	-3	8189	12325	18116	
81234	70	0.00	85	83.17	28.30	-1	-7	-3	16267	9554	15588	
81356	70	0.00	85	83.61	28.40	-1	-7	-1	19100	19692	12531	
81477	70	0.00	84	82.46	28.30	-2	-7	-1	15097	32767	12074	
81599	70	0.00	84	82.02	28.40	-2	-7	-3	10043	32767	13504	
81721	70	0.00	83	81.58	28.40	-1	-7	-3	11816	26047	15697	
81880	70	0.00	83	80.78	28.30	-2	-7	-3	15844	28048	15024	
82008	70	0.00	82	80.96	28.30	-2	-7	-3	19195	32767	15431	
82130	70	0.00	82	80.34	28.40	-2	-7	-3	17607	32767	19182	
82252	70	0.00	81	79.63	28.40	-2	-7	-3	6972	32767	20110	
82373	70	0.00	81	78.93	28.40	0	-7	-3	1417	32767	17479	
82495	70	0.00	80	78.75	28.40	0	-7	-3	121	27528	17767	
82617	70	0.00	80	78.48	28.40	0	-7	-3	5247	9886	20055	
82739	70	0.00	79	77.69	28.40	0	-7	-3	13244	12148	18873	
82860	70	0.00	79	77.69	28.40	-1	-7	-2	17063	23193	15476	
82981	70	0.00	78	76.63	28.40	-2	-7	-1	14161	32767	13918	
83106	70	0.00	78	76.54	28.40	-1	-7	-3	10515	32767	14628	
83228	70	0.00	77	76.27	28.30	-1	-7	-3	10533	29041	16728	
83350	70	0.00	77	75.39	28.40	-1	-6	-3	14959	19804	16741	
83472	70	0.00	76	75.04	28.40	-2	-7	-3	18076	28668	14600	
83593	70	0.00	76	74.24	28.40	-2	-7	-2	16735	32767	15017	
83714	70	0.00	76	74.68	28.40	-2	-6	-3	11101	32767	17451	
83836	70	0.00	75	73.62	28.40	-1	-6	-3	8201	32767	18287	
83957	70	0.00	75	73.36	28.40	-1	-6	-3	11385	21379	18299	
84079	70	0.00	74	72.39	28.40	-2	-7	-3	15854	22303	16053	
84207	70	0.00	74	71.94	28.40	-2	-7	-3	16654	32767	14276	
84329	70	0.00	73	71.77	28.40	-1	-7	-2	14178	32767	15851	
84451	70	0.00	73	71.24	28.40	-1	-6	-2	8308	32767	17837	
84573	70	0.00	72	70.62	28.40	-1	-6	-3	6788	30134	17437	
84693	70	0.00	72	70.09	28.40	0	-7	-3	12665	17837	16375	
84815	70	0.00	71	70.36	28.40	-1	-7	-2	18079	17983	14844	
84937	80	0.00	71	69.12	28.40	-2	-8	-1	17001	29623	13462	
