Ms	Code	A0	CA	MA	T	AX	AY	AZ	GX	GY	GZ
0	20	0.00	0	0.92	28.50	0	0	0	0	0	0	
68	20	0.00	0	0.57	28.50	0	0	0	0	0	0	
121	20	0.00	0	0.21	28.50	0	0	0	0	0	0	
174	20	0.00	0	0.21	28.50	0	0	0	0	0	0	
231	20	0.00	0	0.12	28.60	0	0	0	0	0	0	
283	20	0.00	0	0.12	28.60	0	0	0	0	0	0	
337	20	0.00	0	0.04	28.60	0	0	0	0	0	0	
389	20	0.00	0	0.30	28.60	0	0	0	0	0	0	
442	20	0.00	0	0.57	28.60	0	0	0	0	0	0	
494	20	0.00	0	0.21	28.60	0	0	0	0	0	0	
552	20	0.00	0	-0.14	28.60	0	0	0	0	0	0	
604	20	0.00	0	0.21	28.60	0	0	0	0	0	0	
657	20	0.00	0	0.30	28.60	0	0	0	0	0	0	
712	20	0.00	0	0.30	28.60	0	0	0	0	0	0	
765	20	0.00	0	-0.41	28.60	0	0	0	0	0	0	
822	20	0.00	0	-0.14	28.60	0	0	0	0	0	0	
875	20	0.00	0	0.21	28.60	0	0	0	0	0	0	
929	20	0.00	0	0.12	28.60	0	0	0	0	0	0	
981	20	0.00	0	0.04	28.60	0	0	0	0	0	0	
1034	20	0.00	0	0.21	28.60	0	0	0	0	0	0	
1086	20	0.00	0	-0.23	28.60	0	0	0	0	0	0	
1144	20	0.00	0	0.57	28.60	0	0	0	0	0	0	
1197	20	0.00	0	0.12	28.60	0	0	0	0	0	0	
1250	20	0.00	0	0.30	28.60	0	0	0	0	0	0	
1302	20	0.00	0	0.12	28.60	0	0	0	0	0	0	
1356	20	0.00	0	-0.06	28.60	0	0	0	0	0	0	
1411	20	0.00	0	0.21	28.60	0	0	0	0	0	0	
1468	20	0.00	0	0.12	28.60	0	0	0	0	0	0	
1521	20	0.00	0	0.57	28.60	0	0	0	0	0	0	
1574	20	0.00	0	1.18	28.60	0	0	0	0	0	0	
1627	20	0.00	0	0.21	28.60	0	0	0	0	0	0	
1679	20	0.00	0	0.48	28.60	0	0	0	0	0	0	
1732	20	0.00	0	0.65	28.60	0	0	0	0	0	0	
1790	20	0.00	0	0.57	28.60	0	0	0	0	0	0	
1843	20	0.00	0	1.01	28.60	0	0	0	0	0	0	
1895	20	0.00	0	0.48	28.60	0	0	0	0	0	0	
1948	20	0.00	0	0.48	28.60	0	0	0	0	0	0	
2002	20	0.00	0	-0.32	28.60	0	0	0	0	0	0	
2054	20	0.00	0	0.48	28.60	0	0	0	0	0	0	
2114	20	0.00	0	0.12	28.60	0	0	0	0	0	0	
2167	20	0.00	0	-0.06	28.60	0	0	0	0	0	0	
2220	20	0.00	0	0.04	28.60	0	0	0	0	0	0	
2273	20	0.00	0	0.30	28.60	0	0	0	0	0	0	
2325	20	0.00	0	-0.14	28.60	0	0	0	0	0	0	
2383	20	0.00	0	0.39	28.60	0	0	0	0	0	0	
2436	20	0.00	0	-0.06	28.60	0	0	0	0	0	0	
2488	20	0.00	0	0.04	28.60	0	0	0	0	0	0	
2541	20	0.00	0	0.30	28.60	0	0	0	0	0	0	
2595	20	0.00	0	0.39	28.60	0	0	0	0	0	0	
2647	20	0.00	0	0.39	28.60	0	0	0	0	0	0	
2704	20	0.00	0	0.04	28.60	0	0	0	0	0	0	
2757	20	0.00	0	-0.06	28.60	0	0	0	0	0	0	
2813	20	0.00	0	0.12	28.70	0	0	0	0	0	0	
2866	20	0.00	0	0.04	28.70	0	0	0	0	0	0	
2918	20	0.00	0	0.39	28.70	0	0	0	0	0	0	
2971	20	0.00	0	0.30	28.70	0	0	0	0	0	0	
3029	20	0.00	0	0.39	28.70	0	0	0	0	0	0	
3081	20	0.00	0	0.39	28.70	0	0	0	0	0	0	
3134	20	0.00	0	-0.23	28.70	0	0	0	0	0	0	
3187	20	0.00	0	-0.41	28.70	0	0	0	0	0	0	
3240	20	0.00	0	-0.32	28.70	0	0	0	0	0	0	
3293	20	0.00	0	-0.32	28.70	0	0	0	0	0	0	
3350	20	0.00	0	-0.67	28.70	0	0	0	0	0	0	
3404	20	0.00	0	-0.50	28.70	0	0	0	0	0	0	
3457	20	0.00	0	-0.50	28.70	0	0	0	0	0	0	
3512	20	0.00	0	-0.67	28.70	0	0	0	0	0	0	
3564	20	0.00	0	-0.23	28.70	0	0	0	0	0	0	
3622	20	0.00	0	-0.23	28.70	0	0	0	0	0	0	
3675	20	0.00	0	-0.32	28.70	0	0	0	0	0	0	
3728	20	0.00	0	-0.50	28.70	0	0	0	0	0	0	
3780	20	0.00	0	-0.41	28.70	0	0	0	0	0	0	
3834	20	0.00	0	-0.23	28.70	0	0	0	0	0	0	
3887	20	0.00	0	-0.23	28.70	0	0	0	0	0	0	
3944	20	0.00	0	0.12	28.70	0	0	0	0	0	0	
3996	20	0.00	0	-0.32	28.70	0	0	0	0	0	0	
4050	20	0.00	0	-0.50	28.70	0	0	0	0	0	0	
4103	20	0.00	0	-0.67	28.70	0	0	0	0	0	0	
4155	20	0.00	0	-0.32	28.70	0	0	0	0	0	0	
4210	20	0.00	0	-0.06	28.80	0	0	0	0	0	0	
4268	20	0.00	0	-0.32	28.70	0	0	0	0	0	0	
4321	20	0.00	0	-0.06	28.70	0	0	0	0	0	0	
4374	20	0.00	0	-0.32	28.80	0	0	0	0	0	0	
4426	20	0.00	0	-0.50	28.80	0	0	0	0	0	0	
4480	20	0.00	0	-0.59	28.80	0	0	0	0	0	0	
4532	20	0.00	0	-0.32	28.80	0	0	0	0	0	0	
4589	20	0.00	0	-0.32	28.80	0	0	0	0	0	0	
4643	20	0.00	0	-0.23	28.80	0	0	0	0	0	0	
4696	20	0.00	0	-0.59	28.80	0	0	0	0	0	0	
4748	20	0.00	0	-0.94	28.80	0	0	0	0	0	0	
4801	20	0.00	0	-0.23	28.80	0	0	0	0	0	0	
4854	20	0.00	0	-0.50	28.80	0	0	0	0	0	0	
4914	20	0.00	0	-0.14	28.80	0	0	0	0	0	0	
4967	20	0.00	0	-0.14	28.80	0	0	0	0	0	0	
5019	20	0.00	0	-0.59	28.80	0	0	0	0	0	0	
5073	20	0.00	0	-0.41	28.80	0	0	0	0	0	0	
5125	20	0.00	0	-0.41	28.80	0	0	0	0	0	0	
5182	20	0.00	0	-0.67	28.80	0	0	0	0	0	0	
5235	20	0.00	0	-0.41	28.80	0	0	0	0	0	0	
5289	20	0.00	0	-0.06	28.80	0	0	0	0	0	0	
5341	20	0.00	0	-0.23	28.80	0	0	0	0	0	0	
5394	20	0.00	0	-0.85	28.80	0	0	0	0	0	0	
5447	20	0.00	0	-0.41	28.80	0	0	0	0	0	0	
5505	20	0.00	0	-0.32	28.80	0	0	0	0	0	0	
5557	20	0.00	0	0.12	28.80	0	0	0	0	0	0	
5612	20	0.00	0	-0.14	28.80	0	0	0	0	0	0	
5666	20	0.00	0	-0.14	28.80	0	0	0	0	0	0	
5719	20	0.00	0	-0.41	28.80	0	0	0	0	0	0	
5771	20	0.00	0	-0.32	28.80	0	0	0	0	0	0	
5828	20	0.00	0	-0.06	28.80	0	0	0	0	0	0	
5882	20	0.00	0	0.04	28.80	0	0	0	0	0	0	
5935	20	0.00	0	0.21	28.80	0	0	0	0	0	0	
5987	20	0.00	0	-0.14	28.80	0	0	0	0	0	0	
6040	20	0.00	0	0.04	28.80	0	0	0	0	0	0	
6094	20	0.00	0	0.30	28.80	0	0	0	0	0	0	
6151	20	0.00	0	-0.32	28.80	0	0	0	0	0	0	
6203	20	0.00	0	-0.94	28.80	0	0	0	0	0	0	
6256	20	0.00	0	0.39	28.80	0	0	0	0	0	0	
6312	20	0.00	0	0.39	28.80	0	0	0	0	0	0	
6365	20	0.00	0	0.04	28.80	0	0	0	0	0	0	
6422	20	0.00	0	0.12	28.80	0	0	0	0	0	0	
6474	20	0.00	0	-0.14	28.80	0	0	0	0	0	0	
6528	20	0.00	0	-0.23	28.80	0	0	0	0	0	0	
6580	20	0.00	0	0.12	28.80	0	0	0	0	0	0	
6633	20	0.00	0	0.21	28.80	0	0	0	0	0	0	
6686	20	0.00	0	0.04	28.80	0	0	0	0	0	0	
6743	20	0.00	0	0.12	28.80	0	0	0	0	0	0	
6796	20	0.00	0	-0.32	28.80	0	0	0	0	0	0	
6849	20	0.00	0	-0.14	28.80	0	0	0	0	0	0	
6902	20	0.00	0	0.04	28.80	0	0	0	0	0	0	
6955	20	0.00	0	0.21	28.80	0	0	0	0	0	0	
7010	20	0.00	0	-0.23	28.80	0	0	0	0	0	0	
7067	20	0.00	0	-0.23	28.80	0	0	0	0	0	0	
7121	20	0.00	0	-0.23	28.80	0	0	0	0	0	0	
7173	20	0.00	0	-0.50	28.80	0	0	0	0	0	0	
7226	20	0.00	0	-0.06	28.80	0	0	0	0	0	0	
7279	20	0.00	0	-0.14	28.80	0	0	0	0	0	0	
7333	20	0.00	0	-0.14	28.80	0	0	0	0	0	0	
7390	20	0.00	0	-0.32	28.80	0	0	0	0	0	0	
7442	20	0.00	0	0.12	28.80	0	0	0	0	0	0	
7495	20	0.00	0	-0.14	28.80	0	0	0	0	0	0	
7549	20	0.00	0	-0.32	28.80	0	0	0	0	0	0	
7601	20	0.00	0	-0.59	28.80	0	0	0	0	0	0	
7654	20	0.00	0	-0.41	28.80	0	0	0	0	0	0	
7714	20	0.00	0	0.04	28.80	0	0	0	0	0	0	
7767	20	0.00	0	-0.59	28.80	0	0	0	0	0	0	
7820	20	0.00	0	0.04	28.80	0	0	0	0	0	0	
7872	20	0.00	0	-0.32	28.80	0	0	0	0	0	0	
7926	20	0.00	0	-0.41	28.80	0	0	0	0	0	0	
7983	20	0.00	0	-0.32	28.80	0	0	0	0	0	0	
8036	20	0.00	0	0.12	28.80	0	0	0	0	0	0	
8088	20	0.00	0	-0.06	28.80	0	0	0	0	0	0	
8142	20	0.00	0	-0.06	28.80	0	0	0	0	0	0	
8195	20	0.00	0	-0.23	28.80	0	0	0	0	0	0	
8247	20	0.00	0	-0.06	28.80	0	0	0	0	0	0	
8304	20	0.00	0	0.12	28.80	0	0	0	0	0	0	
8361	20	0.00	0	-0.23	28.80	0	0	0	0	0	0	
8413	20	0.00	0	-0.41	28.80	0	0	0	0	0	0	
8466	20	0.00	0	-0.06	28.80	0	0	0	0	0	0	
8519	20	0.00	0	-0.32	28.80	0	0	0	0	0	0	
8572	20	0.00	0	0.39	28.80	0	0	0	0	0	0	
8629	20	0.00	0	-0.32	28.80	0	0	0	0	0	0	
8682	20	0.00	0	-0.41	28.80	0	0	0	0	0	0	
8735	20	0.00	0	-0.06	28.90	0	0	0	0	0	0	
8788	20	0.00	0	-0.59	28.80	0	0	0	0	0	0	
8841	20	0.00	0	-0.23	28.90	0	0	0	0	0	0	
8894	20	0.00	0	0.04	28.90	0	0	0	0	0	0	
8952	20	0.00	0	-0.59	28.90	0	0	0	0	0	0	
9004	20	0.00	0	-0.50	28.90	0	0	0	0	0	0	
9060	20	0.00	0	-0.59	28.80	0	0	0	0	0	0	
9112	20	0.00	0	-0.32	28.90	0	0	0	0	0	0	
9166	20	0.00	0	-0.06	28.80	0	0	0	0	0	0	
9223	20	0.00	0	-0.32	28.90	0	0	0	0	0	0	
9276	20	0.00	0	0.21	28.90	0	0	0	0	0	0	
9328	20	0.00	0	-0.23	28.90	0	0	0	0	0	0	
9382	20	0.00	0	-0.67	28.90	0	0	0	0	0	0	
9435	20	0.00	0	-0.50	28.90	0	0	0	0	0	0	
9487	20	0.00	0	-0.59	28.90	0	0	0	0	0	0	
9544	20	0.00	0	-0.06	28.90	0	0	0	0	0	0	
9598	20	0.00	0	-0.23	28.90	0	0	0	0	0	0	
9651	20	0.00	0	-0.50	28.90	0	0	0	0	0	0	
9703	20	0.00	0	-0.50	28.90	0	0	0	0	0	0	
9759	20	0.00	0	-0.23	28.90	0	0	0	0	0	0	
9812	20	0.00	0	-0.67	28.90	0	0	0	0	0	0	
9869	20	0.00	0	-0.06	28.90	0	0	0	0	0	0	
9922	20	0.00	0	-0.41	28.90	0	0	0	0	0	0	
9976	20	0.00	0	-0.50	28.90	0	0	0	0	0	0	
10028	20	0.00	0	-0.50	28.90	0	0	0	0	0	0	
10081	20	0.00	0	-0.50	28.90	0	0	0	0	0	0	
10134	20	0.00	0	-0.23	28.90	0	0	0	0	0	0	
10192	20	0.00	0	-0.59	28.90	0	0	0	0	0	0	
10245	20	0.00	0	-0.23	28.90	0	0	0	0	0	0	
10297	20	0.00	0	-0.41	28.90	0	0	0	0	0	0	
10350	20	0.00	0	0.04	28.90	0	0	0	0	0	0	
10404	20	0.00	0	-0.59	28.90	0	0	0	0	0	0	
10463	20	0.00	0	-0.41	28.90	0	0	0	0	0	0	
10516	20	0.00	0	-0.23	28.90	0	0	0	0	0	0	
10568	20	0.00	0	-0.32	28.90	0	0	0	0	0	0	
10622	20	0.00	0	-0.23	28.90	0	0	0	0	0	0	
10675	20	0.00	0	-0.67	28.90	0	0	0	0	0	0	
10727	20	0.00	0	0.12	28.90	0	0	0	0	0	0	
10785	20	0.00	0	-0.32	28.90	0	0	0	0	0	0	
10838	20	0.00	0	-0.23	28.90	0	0	0	0	0	0	
10890	20	0.00	0	-0.32	28.90	0	0	0	0	0	0	
10943	20	0.00	0	-0.41	28.90	0	0	0	0	0	0	
10995	20	0.00	0	-0.23	28.90	0	0	0	0	0	0	
11049	20	0.00	0	0.21	28.90	0	0	0	0	0	0	
11116	20	0.00	0	-0.41	28.90	0	0	0	0	0	0	
11171	20	0.00	0	0.12	28.90	0	0	0	0	0	0	
11226	20	0.00	0	-0.67	28.90	0	0	0	0	0	0	
11280	20	0.00	0	-0.67	28.90	0	0	0	0	0	0	
11335	20	0.00	0	-0.32	28.90	0	0	0	0	0	0	
11395	20	0.00	0	0.12	28.90	0	0	0	0	0	0	
11450	20	0.00	0	-0.23	28.90	0	0	0	0	0	0	
11505	20	0.00	0	-0.50	28.90	0	0	0	0	0	0	
11560	20	0.00	0	-0.67	28.90	0	0	0	0	0	0	
11615	20	0.00	0	-0.50	28.90	0	0	0	0	0	0	
11670	20	0.00	0	-0.85	28.90	0	0	0	0	0	0	
11730	20	0.00	0	-0.14	28.90	0	0	0	0	0	0	
11784	20	0.00	0	-0.50	28.90	0	0	0	0	0	0	
11842	20	0.00	0	0.30	28.90	0	0	0	0	0	0	
11897	20	0.00	0	-0.23	28.90	0	0	0	0	0	0	
11952	20	0.00	0	-0.32	28.90	0	0	0	0	0	0	
12011	20	0.00	0	-0.06	28.90	0	0	0	0	0	0	
12067	20	0.00	0	-0.06	28.90	0	0	0	0	0	0	
12122	20	0.00	0	1.27	28.90	0	0	0	0	0	0	
12177	20	0.00	0	1.36	28.90	0	0	0	0	0	0	
12231	20	0.00	0	0.04	28.90	0	0	0	0	0	0	
12287	20	0.00	0	0.12	28.90	0	0	0	0	0	0	
12346	20	0.00	0	-0.32	28.90	0	0	0	0	0	0	
12401	20	0.00	0	-0.06	28.90	0	0	0	0	0	0	
12456	20	0.00	0	0.04	28.90	0	0	0	0	0	0	
12513	20	0.00	0	0.21	28.90	0	0	0	0	0	0	
12568	20	0.00	0	0.04	28.90	0	0	0	0	0	0	
12624	20	0.00	0	0.12	28.90	0	0	0	0	0	0	
12683	20	0.00	0	-0.14	28.90	0	0	0	0	0	0	
12737	20	0.00	0	-0.67	28.90	0	0	0	0	0	0	
12793	20	0.00	0	0.30	28.90	0	0	0	0	0	0	
12848	20	0.00	0	-0.41	28.90	0	0	0	0	0	0	
12903	20	0.00	0	-0.23	28.90	0	0	0	0	0	0	
12957	20	0.00	0	-0.50	28.90	0	0	0	0	0	0	
13017	20	0.00	0	-0.06	28.90	0	0	0	0	0	0	
13072	20	0.00	0	-0.50	28.90	0	0	0	0	0	0	
13127	20	0.00	0	0.04	28.90	0	0	0	0	0	0	
13182	20	0.00	0	-0.14	28.90	0	0	0	0	0	0	
13240	20	0.00	0	-0.41	28.90	0	0	0	0	0	0	
13299	20	0.00	0	-0.94	28.90	0	0	0	0	0	0	
13354	20	0.00	0	-0.50	28.90	0	0	0	0	0	0	
13409	20	0.00	0	-0.14	28.90	0	0	0	0	0	0	
13464	20	0.00	0	-0.59	28.90	0	0	0	0	0	0	
13519	20	0.00	0	-0.41	28.90	0	0	0	0	0	0	
13574	20	0.00	0	-0.14	28.90	0	0	0	0	0	0	
13633	20	0.00	0	-0.06	28.90	0	0	0	0	0	0	
13689	20	0.00	0	-0.14	28.90	0	0	0	0	0	0	
13744	20	0.00	0	-1.29	28.90	0	0	0	0	0	0	
13798	20	0.00	0	0.04	28.90	0	0	0	0	0	0	
13853	20	0.00	0	0.04	28.90	0	0	0	0	0	0	
13909	20	0.00	0	-0.23	28.90	0	0	0	0	0	0	
13981	20	0.00	0	-0.50	28.90	0	0	0	0	0	0	
14045	20	0.00	0	-0.23	28.90	0	0	0	0	0	0	
14100	20	0.00	0	-0.76	29.00	0	0	0	0	0	0	
14156	20	0.00	0	-0.23	29.00	0	0	0	0	0	0	
14211	20	0.00	0	-0.32	28.90	0	0	0	0	0	0	
14266	20	0.00	0	-0.23	29.00	0	0	0	0	0	0	
14324	20	0.00	0	-0.23	29.00	0	0	0	0	0	0	
14380	20	0.00	0	-0.50	28.90	0	0	0	0	0	0	
14435	20	0.00	0	-0.32	29.00	0	0	0	0	0	0	
14490	20	0.00	0	-0.14	28.90	0	0	0	0	0	0	
14546	20	0.00	0	-0.50	29.00	0	0	0	0	0	0	
14601	20	0.00	0	-0.41	29.00	0	0	0	0	0	0	
14662	20	0.00	0	-0.76	29.00	0	0	0	0	0	0	
14718	20	0.00	0	-0.41	29.00	0	0	0	0	0	0	
14773	20	0.00	0	0.04	29.00	0	0	0	0	0	0	
14828	20	0.00	0	-0.06	29.00	0	0	0	0	0	0	
14884	20	0.00	0	-0.50	29.00	0	0	0	0	0	0	
14942	20	0.00	0	0.04	29.00	0	0	0	0	0	0	
14997	20	0.00	0	-0.06	29.00	0	0	0	0	0	0	
15053	20	0.00	0	-0.50	29.00	0	0	0	0	0	0	
15108	20	0.00	0	-0.23	29.00	0	0	0	0	0	0	
15163	20	0.00	0	-0.14	29.00	0	0	0	0	0	0	
15218	20	0.00	0	-0.23	29.00	0	0	0	0	0	0	
15278	20	0.00	0	-0.41	29.00	0	0	0	0	0	0	
15333	20	0.00	0	-0.32	29.00	0	0	0	0	0	0	
15390	20	0.00	0	-0.06	29.00	0	0	0	0	0	0	
15446	20	0.00	0	-0.32	29.00	0	0	0	0	0	0	
15501	20	0.00	0	-0.50	29.00	0	0	0	0	0	0	
15556	20	0.00	0	-0.32	29.00	0	0	0	0	0	0	
15616	20	0.00	0	-0.59	29.00	0	0	0	0	0	0	
15671	20	0.00	0	-0.14	29.00	0	0	0	0	0	0	
15726	20	0.00	0	-0.50	29.00	0	0	0	0	0	0	
15782	20	0.00	0	-0.32	29.00	0	0	0	0	0	0	
15836	20	0.00	0	-0.23	29.00	0	0	0	0	0	0	
15891	20	0.00	0	-0.06	29.00	0	0	0	0	0	0	
15951	20	0.00	0	-0.32	29.00	0	0	0	0	0	0	
16006	20	0.00	0	-0.32	29.00	0	0	0	0	0	0	
16063	20	0.00	0	-0.59	29.00	0	0	0	0	0	0	
16119	20	0.00	0	-0.06	29.00	0	0	0	0	0	0	
16174	20	0.00	0	-0.67	29.00	0	0	0	0	0	0	
16233	20	0.00	0	-0.41	29.00	0	0	0	0	0	0	
16289	20	0.00	0	-0.67	29.00	0	0	0	0	0	0	
16344	20	0.00	0	-0.41	29.00	0	0	0	0	0	0	
16399	20	0.00	0	-0.59	29.00	0	0	0	0	0	0	
16454	20	0.00	0	-0.76	29.00	0	0	0	0	0	0	
16510	20	0.00	0	-0.50	29.00	0	0	0	0	0	0	
16568	20	0.00	0	-0.32	29.00	0	0	0	0	0	0	
16623	20	0.00	0	-0.50	29.00	0	0	0	0	0	0	
16679	20	0.00	0	-0.41	29.00	0	0	0	0	0	0	
16734	20	0.00	0	-0.67	29.00	0	0	0	0	0	0	
16792	20	0.00	0	-0.67	29.00	0	0	0	0	0	0	
16848	20	0.00	0	-0.14	29.00	0	0	0	0	0	0	
16906	20	0.00	0	-0.50	29.00	0	0	0	0	0	0	
16961	20	0.00	0	-0.50	29.00	0	0	0	0	0	0	
17017	20	0.00	0	-0.67	29.00	0	0	0	0	0	0	
17072	20	0.00	0	-0.59	29.00	0	0	0	0	0	0	
17127	20	0.00	0	-0.76	29.00	0	0	0	0	0	0	
17182	20	0.00	0	-0.59	29.00	0	0	0	0	0	0	
17242	20	0.00	0	-0.06	29.00	0	0	0	0	0	0	
17297	20	0.00	0	-0.06	29.00	0	0	0	0	0	0	
17352	20	0.00	0	-0.67	29.00	0	0	0	0	0	0	
17408	20	0.00	0	-0.76	29.00	0	0	0	0	0	0	
17465	20	0.00	0	-0.23	29.00	0	0	0	0	0	0	
17524	20	0.00	0	-0.85	29.00	0	0	0	0	0	0	
17580	20	0.00	0	-0.32	29.00	0	0	0	0	0	0	
17635	20	0.00	0	-0.76	29.00	0	0	0	0	0	0	
17690	20	0.00	0	-0.23	29.00	0	0	0	0	0	0	
17746	20	0.00	0	-0.23	29.00	0	0	0	0	0	0	
17800	20	0.00	0	-0.14	29.00	0	0	0	0	0	0	
17859	20	0.00	0	-0.85	29.00	0	0	0	0	0	0	
17915	20	0.00	0	-0.50	29.00	0	0	0	0	0	0	
17970	20	0.00	0	-0.59	29.00	0	0	0	0	0	0	
18025	20	0.00	0	-0.14	29.00	0	0	0	0	0	0	
18081	20	0.00	0	-0.59	29.00	0	0	0	0	0	0	
18136	20	0.00	0	-0.23	29.00	0	0	0	0	0	0	
18197	20	0.00	0	0.04	29.00	0	0	0	0	0	0	
18253	20	0.00	0	-0.32	29.00	0	0	0	0	0	0	
18308	20	0.00	0	-0.14	29.00	0	0	0	0	0	0	
18363	20	0.00	0	-0.59	29.00	0	0	0	0	0	0	
18418	20	0.00	0	-0.32	29.00	0	0	0	0	0	0	
18474	20	0.00	0	-0.06	29.00	0	0	0	0	0	0	
18532	20	0.00	0	-0.14	29.00	0	0	0	0	0	0	
18587	20	0.00	0	-0.14	29.00	0	0	0	0	0	0	
18643	20	0.00	0	-0.32	29.00	0	0	0	0	0	0	
18698	20	0.00	0	-0.67	29.00	0	0	0	0	0	0	
18753	20	0.00	0	0.30	29.00	0	0	0	0	0	0	
18809	20	0.00	0	-0.32	29.00	0	0	0	0	0	0	
18870	20	0.00	0	-0.06	29.00	0	0	0	0	0	0	
18925	20	0.00	0	-0.23	29.00	0	0	0	0	0	0	
18981	20	0.00	0	0.21	29.00	0	0	0	0	0	0	
19036	20	0.00	0	-0.06	29.00	0	0	0	0	0	0	
19091	20	0.00	0	-0.14	29.00	0	0	0	0	0	0	
19151	20	0.00	0	-0.06	29.00	0	0	0	0	0	0	
19206	20	0.00	0	-0.32	29.00	0	0	0	0	0	0	
19261	20	0.00	0	-0.23	29.00	0	0	0	0	0	0	
19316	20	0.00	0	-0.14	29.00	0	0	0	0	0	0	
19371	20	0.00	0	0.12	29.00	0	0	0	0	0	0	
19426	20	0.00	0	-0.32	29.00	0	0	0	0	0	0	
19485	20	0.00	0	-0.06	29.00	0	0	0	0	0	0	
19541	20	0.00	0	0.04	29.00	0	0	0	0	0	0	
19598	20	0.00	0	-0.41	29.00	0	0	0	0	0	0	
19653	20	0.00	0	-0.06	29.00	0	0	0	0	0	0	
19709	20	0.00	0	-0.50	29.00	0	0	0	0	0	0	
19764	20	0.00	0	0.12	29.00	0	0	0	0	0	0	
19823	20	0.00	0	-0.14	29.00	0	0	0	0	0	0	
19879	20	0.00	0	0.04	29.00	0	0	0	0	0	0	
19934	20	0.00	0	-0.59	29.00	0	0	0	0	0	0	
19989	20	0.00	0	-0.14	29.00	0	0	0	0	0	0	
20045	20	0.00	0	-0.14	29.00	0	0	0	0	0	0	
20100	20	0.00	0	-0.06	29.00	0	0	0	0	0	0	
20158	20	0.00	0	-0.06	29.00	0	0	0	0	0	0	
20214	20	0.00	0	0.12	29.00	0	0	0	0	0	0	
20272	20	0.00	0	-0.06	29.00	0	0	0	0	0	0	
20327	20	0.00	0	-0.32	29.00	0	0	0	0	0	0	
20381	20	0.00	0	0.04	29.00	0	0	0	0	0	0	
20441	20	0.00	0	-0.14	29.00	0	0	0	0	0	0	
20496	20	0.00	0	-0.23	29.00	0	0	0	0	0	0	
20551	20	0.00	0	-0.32	29.00	0	0	0	0	0	0	
20607	20	0.00	0	-0.32	29.00	0	0	0	0	0	0	
20662	20	0.00	0	-0.50	29.00	0	0	0	0	0	0	
20717	20	0.00	0	-0.23	29.00	0	0	0	0	0	0	
20776	20	0.00	0	-0.50	29.00	0	0	0	0	0	0	
20831	20	0.00	0	-0.67	29.10	0	0	0	0	0	0	
20886	20	0.00	0	-0.85	29.10	0	0	0	0	0	0	
20942	20	0.00	0	-0.50	29.10	0	0	0	0	0	0	
21000	20	0.00	0	-0.41	29.00	0	0	0	0	0	0	
21055	20	0.00	0	-0.23	29.10	0	0	0	0	0	0	
21115	20	0.00	0	-0.59	29.10	0	0	0	0	0	0	
21170	20	0.00	0	-0.14	29.10	0	0	0	0	0	0	
21225	20	0.00	0	-0.41	29.10	0	0	0	0	0	0	
21281	20	0.00	0	-0.06	29.00	0	0	0	0	0	0	
21336	20	0.00	0	0.04	29.10	0	0	0	0	0	0	
21391	20	0.00	0	-0.06	29.10	0	0	0	0	0	0	
21449	20	0.00	0	-0.23	29.00	0	0	0	0	0	0	
21505	20	0.00	0	-0.06	29.10	0	0	0	0	0	0	
21560	20	0.00	0	-0.59	29.10	0	0	0	0	0	0	
21615	20	0.00	0	-0.14	29.10	0	0	0	0	0	0	
21674	20	0.00	0	-0.14	29.10	0	0	0	0	0	0	
21732	20	0.00	0	-0.32	29.10	0	0	0	0	0	0	
21787	20	0.00	0	-0.14	29.10	0	0	0	0	0	0	
21843	20	0.00	0	-0.14	29.10	0	0	0	0	0	0	
21898	20	0.00	0	-0.23	29.10	0	0	0	0	0	0	
21953	20	0.00	0	-0.41	29.10	0	0	0	0	0	0	
22008	20	0.00	0	-0.06	29.10	0	0	0	0	0	0	
22067	20	0.00	0	-0.32	29.10	0	0	0	0	0	0	
22122	20	0.00	0	0.21	29.10	0	0	0	0	0	0	
22178	20	0.00	0	-0.41	29.10	0	0	0	0	0	0	
22233	20	0.00	0	-0.06	29.10	0	0	0	0	0	0	
22287	20	0.00	0	-0.41	29.10	0	0	0	0	0	0	
22342	20	0.00	0	-0.50	29.10	0	0	0	0	0	0	
22412	20	0.00	0	0.12	29.10	0	0	0	0	0	0	
22466	20	0.00	0	0.48	29.10	0	0	0	0	0	0	
22522	20	0.00	0	-0.32	29.10	0	0	0	0	0	0	
22576	20	0.00	0	0.04	29.10	0	0	0	0	0	0	
22631	20	0.00	0	0.04	29.10	0	0	0	0	0	0	
22690	20	0.00	0	-0.23	29.10	0	0	0	0	0	0	
22745	20	0.00	0	-0.32	29.10	0	0	0	0	0	0	
22800	20	0.00	0	-0.06	29.10	0	0	0	0	0	0	
22854	20	0.00	0	-0.14	29.10	0	0	0	0	0	0	
22910	20	0.00	0	-0.14	29.10	0	0	0	0	0	0	
22964	20	0.00	0	-0.06	29.10	0	0	0	0	0	0	
23023	20	0.00	0	-0.23	29.10	0	0	0	0	0	0	
23081	20	0.00	0	0.39	29.10	0	0	0	0	0	0	
23136	20	0.00	0	-0.06	29.10	0	0	0	0	0	0	
23190	20	0.00	0	-0.41	29.10	0	0	0	0	0	0	
23246	20	0.00	0	-0.14	29.10	0	0	0	0	0	0	
23305	20	0.00	0	-0.14	29.10	0	0	0	0	0	0	
23359	20	0.00	0	0.30	29.10	0	0	0	0	0	0	
23415	20	0.00	0	0.21	29.10	0	0	0	0	0	0	
23470	20	0.00	0	0.39	29.10	0	0	0	0	0	0	
23524	20	0.00	0	0.30	29.10	0	0	0	0	0	0	
23579	20	0.00	0	0.04	29.10	0	0	0	0	0	0	
23639	20	0.00	0	0.21	29.10	0	0	0	0	0	0	
23693	20	0.00	0	0.21	29.10	0	0	0	0	0	0	
23748	20	0.00	0	0.12	29.10	0	0	0	0	0	0	
23806	20	0.00	0	0.21	29.10	0	0	0	0	0	0	
23861	20	0.00	0	-0.06	29.10	0	0	0	0	0	0	
23915	20	0.00	0	0.57	29.10	0	0	0	0	0	0	
23975	20	0.00	0	0.12	29.10	0	0	0	0	0	0	
24030	20	0.00	0	0.21	29.10	0	0	0	0	0	0	
24084	20	0.00	0	0.04	29.10	0	0	0	0	0	0	
24140	20	0.00	0	-0.14	29.10	0	0	0	0	0	0	
24195	20	0.00	0	-0.23	29.10	0	0	0	0	0	0	
24249	20	0.00	0	0.39	29.10	0	0	0	0	0	0	
24308	20	0.00	0	0.39	29.10	0	0	0	0	0	0	
24364	20	0.00	0	0.48	29.10	0	0	0	0	0	0	
24418	20	0.00	0	0.12	29.10	0	0	0	0	0	0	
24473	20	0.00	0	-0.06	29.10	0	0	0	0	0	0	
24532	20	0.00	0	-0.14	29.10	0	0	0	0	0	0	
24590	20	0.00	0	0.12	29.10	0	0	0	0	0	0	
24644	20	0.00	0	0.12	29.10	0	0	0	0	0	0	
24700	20	0.00	0	0.39	29.10	0	0	0	0	0	0	
24755	20	0.00	0	0.48	29.10	0	0	0	0	0	0	
24810	20	0.00	0	0.21	29.10	0	0	0	0	0	0	
24866	20	0.00	0	-0.14	29.10	0	0	0	0	0	0	
24924	20	0.00	0	-0.06	29.10	0	0	0	0	0	0	
24979	20	0.00	0	-0.32	29.10	0	0	0	0	0	0	
25033	20	0.00	0	0.12	29.10	0	0	0	0	0	0	
25089	20	0.00	0	0.12	29.10	0	0	0	0	0	0	
25144	20	0.00	0	0.12	29.10	0	0	0	0	0	0	
25201	20	0.00	0	0.12	29.10	0	0	0	0	0	0	
25260	20	0.00	0	-0.06	29.10	0	0	0	0	0	0	
25315	20	0.00	0	0.04	29.10	0	0	0	0	0	0	
25370	20	0.00	0	-0.14	29.10	0	0	0	0	0	0	
25426	20	0.00	0	-0.14	29.10	0	0	0	0	0	0	
25481	20	0.00	0	-0.14	29.10	0	0	0	0	0	0	
25535	20	0.00	0	-0.85	29.10	0	0	0	0	0	0	
25595	20	0.00	0	-0.14	29.10	0	0	0	0	0	0	
25649	20	0.00	0	-0.23	29.10	0	0	0	0	0	0	
25704	20	0.00	0	-0.41	29.10	0	0	0	0	0	0	
25759	20	0.00	0	-0.23	29.10	0	0	0	0	0	0	
25815	20	0.00	0	-0.41	29.10	0	0	0	0	0	0	
25870	20	0.00	0	-0.41	29.10	0	0	0	0	0	0	
25930	20	0.00	0	0.04	29.10	0	0	0	0	0	0	
25986	20	0.00	0	-0.85	29.10	0	0	0	0	0	0	
26041	20	0.00	0	-0.41	29.10	0	0	0	0	0	0	
26096	20	0.00	0	-0.23	29.10	0	0	0	0	0	0	
26152	20	0.00	0	-0.14	29.10	0	0	0	0	0	0	
26210	20	0.00	0	-0.76	29.10	0	0	0	0	0	0	
26264	20	0.00	0	0.30	29.10	0	0	0	0	0	0	
26320	20	0.00	0	0.30	29.10	0	0	0	0	0	0	
26375	20	0.00	0	-0.06	29.10	0	0	0	0	0	0	
26430	20	0.00	0	-0.41	29.10	0	0	0	0	0	0	
26486	20	0.00	0	-0.06	29.10	0	0	0	0	0	0	
26544	20	0.00	0	-0.59	29.10	0	0	0	0	0	0	
26598	20	0.00	0	-0.14	29.10	0	0	0	0	0	0	
26657	20	0.00	0	-0.85	29.10	0	0	0	0	0	0	
26712	20	0.00	0	0.04	29.10	0	0	0	0	0	0	
26766	20	0.00	0	-0.14	29.10	0	0	0	0	0	0	
26821	20	0.00	0	-0.41	29.10	0	0	0	0	0	0	
26880	20	0.00	0	-0.23	29.10	0	0	0	0	0	0	
26935	20	0.00	0	0.30	29.10	0	0	0	0	0	0	
26990	20	0.00	0	0.39	29.10	0	0	0	0	0	0	
27045	20	0.00	0	-0.50	29.10	0	0	0	0	0	0	
27100	20	0.00	0	-0.32	29.10	0	0	0	0	0	0	
27155	20	0.00	0	-0.59	29.10	0	0	0	0	0	0	
27214	20	0.00	0	-0.76	29.10	0	0	0	0	0	0	
27269	20	0.00	0	-0.41	29.10	0	0	0	0	0	0	
27326	20	0.00	0	-0.14	29.10	0	0	0	0	0	0	
27382	20	0.00	0	-0.14	29.10	0	0	0	0	0	0	
27436	20	0.00	0	0.04	29.10	0	0	0	0	0	0	
27494	20	0.00	0	-0.06	29.10	0	0	0	0	0	0	
27549	20	0.00	0	-0.59	29.10	0	0	0	0	0	0	
27605	20	0.00	0	-0.41	29.10	0	0	0	0	0	0	
27660	20	0.00	0	-0.14	29.10	0	0	0	0	0	0	
27714	20	0.00	0	-0.14	29.10	0	0	0	0	0	0	
27770	20	0.00	0	-0.67	29.10	0	0	0	0	0	0	
27828	20	0.00	0	-0.41	29.10	0	0	0	0	0	0	
27883	20	0.00	0	-0.50	29.10	0	0	0	0	0	0	
27939	20	0.00	0	0.21	29.10	0	0	0	0	0	0	
27994	20	0.00	0	0.04	29.10	0	0	0	0	0	0	
28051	20	0.00	0	-0.23	29.10	0	0	0	0	0	0	
28106	20	0.00	0	-0.50	29.10	0	0	0	0	0	0	
28165	20	0.00	0	-0.41	29.10	0	0	0	0	0	0	
28220	20	0.00	0	-0.41	29.10	0	0	0	0	0	0	
28275	20	0.00	0	-0.67	29.20	0	0	0	0	0	0	
28331	20	0.00	0	-1.03	29.20	0	0	0	0	0	0	
28385	20	0.00	0	-0.85	29.10	0	0	0	0	0	0	
28440	20	0.00	0	-0.59	29.20	0	0	0	0	0	0	
28499	20	0.00	0	-0.94	29.10	0	0	0	0	0	0	
28554	20	0.00	0	-0.41	29.10	0	0	0	0	0	0	
28609	20	0.00	0	-1.03	29.10	0	0	0	0	0	0	
28665	20	0.00	0	-0.76	29.10	0	0	0	0	0	0	
28722	20	0.00	0	-0.94	29.20	0	0	0	0	0	0	
28780	20	0.00	0	-0.85	29.10	0	0	0	0	0	0	
28836	20	0.00	0	-0.41	29.20	0	0	0	0	0	0	
28891	20	0.00	0	-0.59	29.10	0	0	0	0	0	0	
28946	20	0.00	0	-0.23	29.20	0	0	0	0	0	0	
29001	20	0.00	0	-0.32	29.20	0	0	0	0	0	0	
29056	20	0.00	0	-0.41	29.10	0	0	0	0	0	0	
29115	20	0.00	0	-1.03	29.20	0	0	0	0	0	0	
29169	20	0.00	0	-0.32	29.20	0	0	0	0	0	0	
29225	20	0.00	0	-0.59	29.20	0	0	0	0	0	0	
29280	20	0.00	0	-0.06	29.20	0	0	0	0	0	0	
29335	20	0.00	0	-0.94	29.20	0	0	0	0	0	0	
29391	20	0.00	0	-0.67	29.20	0	0	0	0	0	0	
29451	20	0.00	0	-0.94	29.20	0	0	0	0	0	0	
29506	20	0.00	0	-0.85	29.20	0	0	0	0	0	0	
29562	20	0.00	0	-0.41	29.20	0	0	0	0	0	0	
29617	20	0.00	0	-0.50	29.20	0	0	0	0	0	0	
29671	20	0.00	0	-0.76	29.10	0	0	0	0	0	0	
29726	20	0.00	0	-0.50	29.20	0	0	0	0	0	0	
29785	20	0.00	0	-0.41	29.20	0	0	0	0	0	0	
29840	20	0.00	0	-0.59	29.20	0	0	0	0	0	0	
29895	20	0.00	0	-1.12	29.20	0	0	0	0	0	0	
29951	20	0.00	0	-0.67	29.20	0	0	0	0	0	0	
30005	20	0.00	0	-0.41	29.20	0	0	0	0	0	0	
30060	20	0.00	0	-0.67	29.20	0	0	0	0	0	0	
30122	20	0.00	0	-0.59	29.20	0	0	0	0	0	0	
30176	20	0.00	0	-0.32	29.20	0	0	0	0	0	0	
30231	20	0.00	0	-0.32	29.20	0	0	0	0	0	0	
30287	20	0.00	0	-0.59	29.20	0	0	0	0	0	0	
30342	20	0.00	0	-0.32	29.20	0	0	0	0	0	0	
30400	20	0.00	0	-0.41	29.20	0	0	0	0	0	0	
30456	20	0.00	0	-0.59	29.20	0	0	0	0	0	0	
30510	20	0.00	0	-0.50	29.20	0	0	0	0	0	0	
30565	20	0.00	0	-0.41	29.20	0	0	0	0	0	0	
30620	20	0.00	0	-0.32	29.20	0	0	0	0	0	0	
30676	20	0.00	0	-0.50	29.20	0	0	0	0	0	0	
30734	20	0.00	0	-0.32	29.20	0	0	0	0	0	0	
30788	20	0.00	0	-1.38	29.20	0	0	0	0	0	0	
30847	20	0.00	0	-0.32	29.20	0	0	0	0	0	0	
30901	20	0.00	0	-0.41	29.20	0	0	0	0	0	0	
30956	20	0.00	0	-0.94	29.20	0	0	0	0	0	0	
31012	20	0.00	0	-0.67	29.20	0	0	0	0	0	0	
31070	20	0.00	0	-0.14	29.20	0	0	0	0	0	0	
31125	20	0.00	0	0.04	29.20	0	0	0	0	0	0	
31180	20	0.00	0	-0.23	29.20	0	0	0	0	0	0	
31235	20	0.00	0	0.04	29.20	0	0	0	0	0	0	
31290	20	0.00	0	-0.76	29.20	0	0	0	0	0	0	
31345	20	0.00	0	-0.41	29.20	0	0	0	0	0	0	
31404	20	0.00	0	-0.32	29.20	0	0	0	0	0	0	
31458	20	0.00	0	-0.41	29.20	0	0	0	0	0	0	
31516	20	0.00	0	-0.06	29.20	0	0	0	0	0	0	
31571	20	0.00	0	-0.41	29.20	0	0	0	0	0	0	
31626	20	0.00	0	0.12	29.20	0	0	0	0	0	0	
31684	20	0.00	0	-0.14	29.20	0	0	0	0	0	0	
31740	20	0.00	0	-0.41	29.20	0	0	0	0	0	0	
31795	20	0.00	0	-0.85	29.20	0	0	0	0	0	0	
31849	20	0.00	0	-0.59	29.20	0	0	0	0	0	0	
31905	20	0.00	0	-0.50	29.20	0	0	0	0	0	0	
31960	20	0.00	0	-0.41	29.20	0	0	0	0	0	0	
32018	20	0.00	0	-0.67	29.20	0	0	0	0	0	0	
32073	20	0.00	0	-0.23	29.20	0	0	0	0	0	0	
32128	20	0.00	0	-0.14	29.20	0	0	0	0	0	0	
32183	20	0.00	0	-0.06	29.20	0	0	0	0	0	0	
32240	20	0.00	0	-0.23	29.20	0	0	0	0	0	0	
32296	20	0.00	0	-0.06	29.20	0	0	0	0	0	0	
32354	20	0.00	0	-0.14	29.20	0	0	0	0	0	0	
32409	20	0.00	0	0.04	29.20	0	0	0	0	0	0	
32465	20	0.00	0	-0.23	29.20	0	0	0	0	0	0	
32519	20	0.00	0	0.04	29.20	0	0	0	0	0	0	
32574	20	0.00	0	-0.14	29.20	0	0	0	0	0	0	
32630	20	0.00	0	-0.23	29.20	0	0	0	0	0	0	
32688	20	0.00	0	0.04	29.20	0	0	0	0	0	0	
32743	20	0.00	0	0.04	29.20	0	0	0	0	0	0	
32797	20	0.00	0	0.48	29.20	0	0	0	0	0	0	
32853	20	0.00	0	-0.06	29.20	0	0	0	0	0	0	
32910	20	0.00	0	0.39	29.20	0	0	0	0	0	0	
32968	20	0.00	0	-0.06	29.20	0	0	0	0	0	0	
33023	20	0.00	0	-0.50	29.20	0	0	0	0	0	0	
33078	20	0.00	0	-0.14	29.20	0	0	0	0	0	0	
33133	20	0.00	0	-0.85	29.20	0	0	0	0	0	0	
33188	20	0.00	0	-0.14	29.20	0	0	0	0	0	0	
33243	20	0.00	0	-0.41	29.20	0	0	0	0	0	0	
33301	20	0.00	0	-0.41	29.20	0	0	0	0	0	0	
33356	20	0.00	0	-0.59	29.20	0	0	0	0	0	0	
33411	20	0.00	0	-0.23	29.20	0	0	0	0	0	0	
33466	20	0.00	0	-0.14	29.20	0	0	0	0	0	0	
33520	20	0.00	0	-0.06	29.20	0	0	0	0	0	0	
33576	20	0.00	0	-0.14	29.20	0	0	0	0	0	0	
33643	20	0.00	0	0.30	29.20	0	0	0	0	0	0	
33699	20	0.00	0	-0.06	29.20	0	0	0	0	0	0	
33754	20	0.00	0	0.04	29.20	0	0	0	0	0	0	
33808	20	0.00	0	-0.06	29.20	0	0	0	0	0	0	
33863	20	0.00	0	-0.06	29.20	0	0	0	0	0	0	
33922	20	0.00	0	0.92	29.20	0	0	0	0	0	0	
33976	20	0.00	0	0.57	29.20	0	0	0	0	0	0	
34031	20	0.00	0	0.04	29.20	0	0	0	0	0	0	
34087	20	0.00	0	0.30	29.20	0	0	0	0	0	0	
34141	20	0.00	0	-0.41	29.20	0	0	0	0	0	0	
34196	20	0.00	0	-0.06	29.20	0	0	0	0	0	0	
34255	20	0.00	0	0.39	29.20	0	0	0	0	0	0	
34312	20	0.00	0	-0.06	29.20	0	0	0	0	0	0	
34367	20	0.00	0	0.04	29.20	0	0	0	0	0	0	
34422	20	0.00	0	0.12	29.20	0	0	0	0	0	0	
34477	20	0.00	0	-0.41	29.20	0	0	0	0	0	0	
34535	20	0.00	0	-0.67	29.20	0	0	0	0	0	0	
34590	20	0.00	0	-0.41	29.20	0	0	0	0	0	0	
34646	20	0.00	0	0.21	29.20	0	0	0	0	0	0	
34700	20	0.00	0	0.12	29.20	0	0	0	0	0	0	
34755	20	0.00	0	-0.59	29.20	0	0	0	0	0	0	
34811	20	0.00	0	0.04	29.20	0	0	0	0	0	0	
34869	20	0.00	0	-0.59	29.20	0	0	0	0	0	0	
34924	20	0.00	0	0.04	29.20	0	0	0	0	0	0	
34979	20	0.00	0	-0.06	29.20	0	0	0	0	0	0	
35037	20	0.00	0	-0.41	29.20	0	0	0	0	0	0	
35091	20	0.00	0	0.04	29.20	0	0	0	0	0	0	
35146	20	0.00	0	-0.14	29.20	0	0	0	0	0	0	
35205	20	0.00	0	0.57	29.20	0	0	0	0	0	0	
35260	20	0.00	0	0.12	29.20	0	0	0	0	0	0	
35315	20	0.00	0	-0.23	29.20	0	0	0	0	0	0	
35371	20	0.00	0	-0.41	29.20	0	0	0	0	0	0	
35425	20	0.00	0	-0.67	29.20	0	0	0	0	0	0	
35480	20	0.00	0	-0.41	29.20	0	0	0	0	0	0	
35539	20	0.00	0	-0.59	29.20	0	0	0	0	0	0	
35594	20	0.00	0	0.30	29.20	0	0	0	0	0	0	
35649	20	0.00	0	0.30	29.20	0	0	0	0	0	0	
35705	20	0.00	0	-0.32	29.20	0	0	0	0	0	0	
35762	20	0.00	0	-0.23	29.20	0	0	0	0	0	0	
35820	20	0.00	0	-0.67	29.20	0	0	0	0	0	0	
35876	20	0.00	0	-0.59	29.20	0	0	0	0	0	0	
35931	20	0.00	0	-0.59	29.20	0	0	0	0	0	0	
35986	20	0.00	0	-0.14	29.20	0	0	0	0	0	0	
36041	20	0.00	0	-0.06	29.20	0	0	0	0	0	0	
36097	20	0.00	0	-0.32	29.20	0	0	0	0	0	0	
36155	20	0.00	0	0.21	29.20	0	0	0	0	0	0	
36210	20	0.00	0	0.04	29.20	0	0	0	0	0	0	
36265	20	0.00	0	-0.41	29.20	0	0	0	0	0	0	
36320	20	0.00	0	0.30	29.20	0	0	0	0	0	0	
36375	20	0.00	0	-0.67	29.20	0	0	0	0	0	0	
36433	20	0.00	0	-0.67	29.20	0	0	0	0	0	0	
36492	20	0.00	0	-0.32	29.20	0	0	0	0	0	0	
36546	20	0.00	0	-0.41	29.20	0	0	0	0	0	0	
36602	20	0.00	0	-0.41	29.20	0	0	0	0	0	0	
36657	20	0.00	0	-0.85	29.20	0	0	0	0	0	0	
36712	20	0.00	0	0.04	29.20	0	0	0	0	0	0	
36767	20	0.00	0	-0.32	29.20	0	0	0	0	0	0	
36826	20	0.00	0	-0.59	29.20	0	0	0	0	0	0	
36881	20	0.00	0	-0.32	29.20	0	0	0	0	0	0	
36936	20	0.00	0	-0.41	29.20	0	0	0	0	0	0	
36991	20	0.00	0	-0.41	29.20	0	0	0	0	0	0	
37046	20	0.00	0	-0.14	29.20	0	0	0	0	0	0	
37101	20	0.00	0	-0.23	29.20	0	0	0	0	0	0	
37163	20	0.00	0	-0.41	29.20	0	0	0	0	0	0	
37218	20	0.00	0	-0.59	29.20	0	0	0	0	0	0	
37273	20	0.00	0	-0.59	29.20	0	0	0	0	0	0	
37328	20	0.00	0	-0.59	29.20	0	0	0	0	0	0	
37383	20	0.00	0	-0.32	29.20	0	0	0	0	0	0	
37441	20	0.00	0	-0.59	29.20	0	0	0	0	0	0	
37497	20	0.00	0	-0.41	29.20	0	0	0	0	0	0	
37552	20	0.00	0	-0.32	29.20	0	0	0	0	0	0	
37607	20	0.00	0	-0.59	29.20	0	0	0	0	0	0	
37662	20	0.00	0	-0.41	29.20	0	0	0	0	0	0	
37718	20	0.00	0	-0.50	29.20	0	0	0	0	0	0	
37776	20	0.00	0	-0.50	29.20	0	0	0	0	0	0	
37833	20	0.00	0	-0.32	29.20	0	0	0	0	0	0	
37889	20	0.00	0	-0.32	29.20	0	0	0	0	0	0	
37944	20	0.00	0	-0.14	29.20	0	0	0	0	0	0	
37999	20	0.00	0	-0.14	29.20	0	0	0	0	0	0	
38055	20	0.00	0	-0.41	29.20	0	0	0	0	0	0	
38113	20	0.00	0	-0.59	29.20	0	0	0	0	0	0	
38168	20	0.00	0	-0.23	29.20	0	0	0	0	0	0	
38223	20	0.00	0	-1.03	29.20	0	0	0	0	0	0	
38278	20	0.00	0	-0.59	29.20	0	0	0	0	0	0	
38333	20	0.00	0	-0.23	29.20	0	0	0	0	0	0	
38388	20	0.00	0	-0.50	29.20	0	0	0	0	0	0	
38447	20	0.00	0	0.12	29.20	0	0	0	0	0	0	
38502	20	0.00	0	-0.41	29.20	0	0	0	0	0	0	
38559	20	0.00	0	-0.59	29.20	0	0	0	0	0	0	
38615	20	0.00	0	-0.32	29.20	0	0	0	0	0	0	
38670	20	0.00	0	-0.67	29.20	0	0	0	0	0	0	
38728	20	0.00	0	-0.14	29.20	0	0	0	0	0	0	
38784	20	0.00	0	-0.50	29.20	0	0	0	0	0	0	
38839	20	0.00	0	-0.41	29.20	0	0	0	0	0	0	
38894	20	0.00	0	-0.41	29.20	0	0	0	0	0	0	
38950	20	0.00	0	-0.41	29.20	0	0	0	0	0	0	
39004	20	0.00	0	-0.50	29.20	0	0	0	0	0	0	
39063	20	0.00	0	0.21	29.20	0	0	0	0	0	0	
39118	20	0.00	0	-0.76	29.20	0	0	0	0	0	0	
39173	20	0.00	0	-0.23	29.20	0	0	0	0	0	0	
39231	20	0.00	0	-0.41	29.20	0	0	0	0	0	0	
39286	20	0.00	0	-0.41	29.20	0	0	0	0	0	0	
39341	20	0.00	0	0.04	29.20	0	0	0	0	0	0	
39399	20	0.00	0	-0.06	29.20	0	0	0	0	0	0	
39454	20	0.00	0	-0.50	29.20	0	0	0	0	0	0	
39510	20	0.00	0	-0.59	29.20	0	0	0	0	0	0	
39565	20	0.00	0	-0.14	29.20	0	0	0	0	0	0	
39620	20	0.00	0	-0.67	29.20	0	0	0	0	0	0	
39676	20	0.00	0	-0.50	29.20	0	0	0	0	0	0	
39734	20	0.00	0	-0.50	29.20	0	0	0	0	0	0	
39789	20	0.00	0	-0.23	29.20	0	0	0	0	0	0	
39844	20	0.00	0	-0.32	29.30	0	0	0	0	0	0	
39899	20	0.00	0	0.04	29.20	0	0	0	0	0	0	
39956	20	0.00	0	-0.41	29.20	0	0	0	0	0	0	
40016	20	0.00	0	-0.23	29.20	0	0	0	0	0	0	
40071	20	0.00	0	-0.06	29.20	0	0	0	0	0	0	
40125	20	0.00	0	-0.06	29.20	0	0	0	0	0	0	
40180	20	0.00	0	0.30	29.20	0	0	0	0	0	0	
40236	20	0.00	0	0.39	29.30	0	0	0	0	0	0	
40291	20	0.00	0	-0.23	29.20	0	0	0	0	0	0	
40349	20	0.00	0	-0.14	29.20	0	0	0	0	0	0	
40405	20	0.00	0	-0.14	29.20	0	0	0	0	0	0	
40460	20	0.00	0	0.30	29.30	0	0	0	0	0	0	
40514	20	0.00	0	0.21	29.30	0	0	0	0	0	0	
40570	20	0.00	0	0.30	29.20	0	0	0	0	0	0	
40628	20	0.00	0	-0.06	29.30	0	0	0	0	0	0	
40686	20	0.00	0	-0.06	29.30	0	0	0	0	0	0	
40742	20	0.00	0	0.04	29.30	0	0	0	0	0	0	
40796	20	0.00	0	-0.41	29.30	0	0	0	0	0	0	
40851	20	0.00	0	-0.23	29.30	0	0	0	0	0	0	
40906	20	0.00	0	0.21	29.30	0	0	0	0	0	0	
40962	20	0.00	0	-0.23	29.30	0	0	0	0	0	0	
41020	20	0.00	0	-0.32	29.20	0	0	0	0	0	0	
41075	20	0.00	0	-0.32	29.30	0	0	0	0	0	0	
41131	20	0.00	0	-0.14	29.30	0	0	0	0	0	0	
41185	20	0.00	0	-0.41	29.30	0	0	0	0	0	0	
41240	20	0.00	0	0.12	29.30	0	0	0	0	0	0	
41296	20	0.00	0	-0.23	29.30	0	0	0	0	0	0	
41357	20	0.00	0	-0.32	29.30	0	0	0	0	0	0	
41412	20	0.00	0	0.04	29.30	0	0	0	0	0	0	
41467	20	0.00	0	-0.06	29.30	0	0	0	0	0	0	
41522	20	0.00	0	-0.23	29.30	0	0	0	0	0	0	
41577	20	0.00	0	-0.67	29.30	0	0	0	0	0	0	
41636	20	0.00	0	-0.50	29.30	0	0	0	0	0	0	
41691	20	0.00	0	-0.32	29.30	0	0	0	0	0	0	
41746	20	0.00	0	0.04	29.30	0	0	0	0	0	0	
41801	20	0.00	0	-0.06	29.30	0	0	0	0	0	0	
41857	20	0.00	0	-0.50	29.30	0	0	0	0	0	0	
41911	20	0.00	0	-0.76	29.30	0	0	0	0	0	0	
41970	20	0.00	0	-0.32	29.30	0	0	0	0	0	0	
42025	20	0.00	0	-0.32	29.30	0	0	0	0	0	0	
42083	20	0.00	0	-0.23	29.30	0	0	0	0	0	0	
42138	20	0.00	0	-0.59	29.30	0	0	0	0	0	0	
42193	20	0.00	0	-0.32	29.30	0	0	0	0	0	0	
42248	20	0.00	0	-0.06	29.30	0	0	0	0	0	0	
42306	20	0.00	0	-0.41	29.30	0	0	0	0	0	0	
42362	20	0.00	0	-0.14	29.30	0	0	0	0	0	0	
42417	20	0.00	0	-0.06	29.30	0	0	0	0	0	0	
42472	20	0.00	0	-0.59	29.30	0	0	0	0	0	0	
42527	20	0.00	0	0.04	29.30	0	0	0	0	0	0	
42583	20	0.00	0	-0.41	29.30	0	0	0	0	0	0	
42641	20	0.00	0	-0.32	29.30	0	0	0	0	0	0	
42696	20	0.00	0	-0.76	29.30	0	0	0	0	0	0	
42754	20	0.00	0	-0.14	29.30	0	0	0	0	0	0	
42809	20	0.00	0	-0.59	29.30	0	0	0	0	0	0	
42864	20	0.00	0	-0.50	29.30	0	0	0	0	0	0	
42923	20	0.00	0	-0.85	29.30	0	0	0	0	0	0	
42978	20	0.00	0	-0.67	29.30	0	0	0	0	0	0	
43032	20	0.00	0	-0.76	29.30	0	0	0	0	0	0	
43088	20	0.00	0	-0.50	29.30	0	0	0	0	0	0	
43143	20	0.00	0	-0.14	29.30	0	0	0	0	0	0	
43198	20	0.00	0	-0.41	29.30	0	0	0	0	0	0	
43257	20	0.00	0	-0.76	29.30	0	0	0	0	0	0	
43312	20	0.00	0	-0.32	29.30	0	0	0	0	0	0	
43367	20	0.00	0	-0.23	29.30	0	0	0	0	0	0	
43422	20	0.00	0	-0.41	29.30	0	0	0	0	0	0	
43480	20	0.00	0	-0.41	29.30	0	0	0	0	0	0	
43535	20	0.00	0	-0.41	29.30	0	0	0	0	0	0	
43593	20	0.00	0	0.04	29.30	0	0	0	0	0	0	
43649	20	0.00	0	0.12	29.30	0	0	0	0	0	0	
43704	20	0.00	0	-0.59	29.30	0	0	0	0	0	0	
43758	20	0.00	0	-0.50	29.30	0	0	0	0	0	0	
43814	20	0.00	0	-0.14	29.30	0	0	0	0	0	0	
43869	20	0.00	0	-0.67	29.30	0	0	0	0	0	0	
43927	20	0.00	0	-0.32	29.30	0	0	0	0	0	0	
43983	20	0.00	0	-0.32	29.30	0	0	0	0	0	0	
44038	20	0.00	0	-0.06	29.30	0	0	0	0	0	0	
44093	20	0.00	0	0.04	29.30	0	0	0	0	0	0	
44151	20	0.00	0	-0.50	29.30	0	0	0	0	0	0	
44209	20	0.00	0	-0.23	29.30	0	0	0	0	0	0	
44264	20	0.00	0	-0.50	29.30	0	0	0	0	0	0	
44318	20	0.00	0	-0.50	29.30	0	0	0	0	0	0	
44374	20	0.00	0	-0.76	29.30	0	0	0	0	0	0	
44429	20	0.00	0	-0.50	29.30	0	0	0	0	0	0	
44483	20	0.00	0	-0.41	29.30	0	0	0	0	0	0	
44542	20	0.00	0	-0.14	29.30	0	0	0	0	0	0	
44597	20	0.00	0	0.04	29.30	0	0	0	0	0	0	
44652	20	0.00	0	-0.23	29.30	0	0	0	0	0	0	
44707	20	0.00	0	0.04	29.30	0	0	0	0	0	0	
44762	20	0.00	0	-0.32	29.30	0	0	0	0	0	0	
44817	20	0.00	0	0.12	29.30	0	0	0	0	0	0	
44886	20	0.00	0	-0.14	29.30	0	0	0	0	0	0	
44940	20	0.00	0	-0.23	29.30	0	0	0	0	0	0	
44995	20	0.00	0	-0.32	29.30	0	0	0	0	0	0	
45051	20	0.00	0	-0.59	29.30	0	0	0	0	0	0	
45106	20	0.00	0	-0.14	29.30	0	0	0	0	0	0	
45164	20	0.00	0	-0.23	29.30	0	0	0	0	0	0	
45219	20	0.00	0	-0.06	29.30	0	0	0	0	0	0	
45274	20	0.00	0	-0.14	29.30	0	0	0	0	0	0	
45329	20	0.00	0	-0.32	29.30	0	0	0	0	0	0	
45384	20	0.00	0	-0.06	29.30	0	0	0	0	0	0	
45439	20	0.00	0	0.12	29.30	0	0	0	0	0	0	
45497	20	0.00	0	0.21	29.30	0	0	0	0	0	0	
45554	20	0.00	0	-0.32	29.30	0	0	0	0	0	0	
45610	20	0.00	0	-0.67	29.30	0	0	0	0	0	0	
45665	20	0.00	0	-0.59	29.30	0	0	0	0	0	0	
45720	20	0.00	0	-0.41	29.30	0	0	0	0	0	0	
45779	20	0.00	0	-0.32	29.30	0	0	0	0	0	0	
45834	20	0.00	0	-0.32	29.30	0	0	0	0	0	0	
45889	20	0.00	0	0.12	29.30	0	0	0	0	0	0	
45945	20	0.00	0	-0.23	29.30	0	0	0	0	0	0	
46000	20	0.00	0	-1.03	29.30	0	0	0	0	0	0	
46054	20	0.00	0	-0.06	29.30	0	0	0	0	0	0	
46114	20	0.00	0	-0.06	29.30	0	0	0	0	0	0	
46168	20	0.00	0	-0.50	29.30	0	0	0	0	0	0	
46223	20	0.00	0	-0.41	29.30	0	0	0	0	0	0	
46281	20	0.00	0	-0.23	29.30	0	0	0	0	0	0	
46336	20	0.00	0	-0.32	29.30	0	0	0	0	0	0	
46391	20	0.00	0	-0.59	29.30	0	0	0	0	0	0	
46449	20	0.00	0	-0.14	29.30	0	0	0	0	0	0	
46505	20	0.00	0	-0.85	29.30	0	0	0	0	0	0	
46560	20	0.00	0	-0.59	29.30	0	0	0	0	0	0	
46615	20	0.00	0	0.04	29.30	0	0	0	0	0	0	
46671	20	0.00	0	-0.23	29.30	0	0	0	0	0	0	
46726	20	0.00	0	-0.32	29.30	0	0	0	0	0	0	
46784	20	0.00	0	-0.67	29.30	0	0	0	0	0	0	
46840	20	0.00	0	-0.76	29.30	0	0	0	0	0	0	
46895	20	0.00	0	-0.85	29.30	0	0	0	0	0	0	
46952	20	0.00	0	-0.23	29.30	0	0	0	0	0	0	
47007	20	0.00	0	-0.76	29.30	0	0	0	0	0	0	
47066	20	0.00	0	-0.23	29.30	0	0	0	0	0	0	
47121	20	0.00	0	-0.50	29.30	0	0	0	0	0	0	
47176	20	0.00	0	-0.32	29.30	0	0	0	0	0	0	
47231	20	0.00	0	-0.41	29.30	0	0	0	0	0	0	
47286	20	0.00	0	-0.85	29.30	0	0	0	0	0	0	
47341	20	0.00	0	0.04	29.30	0	0	0	0	0	0	
47400	20	0.00	0	1.45	29.30	0	0	0	0	0	0	
47455	20	0.00	0	4.80	29.30	0	0	0	0	0	0	
47510	20	0.00	2	8.50	29.30	0	0	0	0	0	0	
47566	20	0.00	4	11.41	29.30	0	0	0	0	0	0	
47620	20	0.00	5	9.56	29.30	0	0	0	0	0	0	
47678	40	0.00	6	9.65	29.30	0	0	0	0	0	0	
47743	40	0.00	7	11.50	29.30	0	0	0	0	0	0	
47805	40	0.00	8	12.82	29.30	0	0	0	0	0	0	
47867	40	0.00	9	13.79	29.30	0	0	0	0	0	0	
47928	40	0.00	10	14.59	29.30	0	0	0	0	0	0	
47990	40	0.00	11	16.00	29.30	0	0	0	0	0	0	
48052	40	0.00	12	16.53	29.30	0	0	0	0	0	0	
48116	40	0.00	13	18.21	29.30	0	0	0	0	0	0	
48178	40	0.00	14	19.00	29.30	0	0	0	0	0	0	
48240	40	0.00	15	20.24	29.30	0	0	0	0	0	0	
48302	40	0.00	16	20.86	29.30	0	0	0	0	0	0	
48363	40	0.00	18	22.62	29.30	0	0	0	0	0	0	
48431	40	0.00	18	22.71	29.30	0	0	0	0	0	0	
48493	40	0.00	19	23.95	29.30	0	0	0	0	0	0	
48555	40	0.00	20	24.12	29.30	0	0	0	0	0	0	
48616	40	0.00	21	25.36	29.30	0	0	0	0	0	0	
48679	40	0.00	22	25.98	29.30	0	0	0	0	0	0	
48737	40	0.00	23	26.60	29.30	0	0	0	0	0	0	
48798	40	0.00	24	27.22	29.30	0	0	0	0	0	0	
48857	40	0.00	24	27.57	29.30	0	0	0	0	0	0	
48915	40	0.00	25	28.36	29.30	0	0	0	0	0	0	
48974	40	0.00	26	28.54	29.30	0	0	0	0	0	0	
49032	40	0.00	26	29.78	29.30	0	0	0	0	0	0	
49094	40	0.00	27	30.13	29.30	0	0	0	0	0	0	
49162	40	0.00	28	30.75	29.30	0	0	0	0	0	0	
49223	40	0.00	28	31.37	29.30	0	0	0	0	0	0	
49285	40	0.00	29	31.46	29.30	0	0	0	0	0	0	
49347	40	0.00	29	31.72	29.30	0	0	0	0	0	0	
49409	40	0.00	30	32.08	29.30	0	0	0	0	0	0	
49470	40	0.00	30	32.25	29.30	0	0	0	0	0	0	
49536	40	0.00	31	32.96	29.30	0	0	0	0	0	0	
49597	40	0.00	31	33.40	29.30	0	0	0	0	0	0	
49659	40	0.00	31	33.67	29.30	0	0	0	0	0	0	
49721	40	0.00	32	33.84	29.30	0	0	0	0	0	0	
49783	40	0.00	32	33.40	29.30	0	0	0	0	0	0	
49844	40	0.00	32	34.02	29.30	0	0	0	0	0	0	
49910	40	0.00	33	33.67	29.30	0	0	0	0	0	0	
49974	40	0.00	33	34.38	29.30	0	0	0	0	0	0	
50035	40	0.00	33	33.67	29.30	0	0	0	0	0	0	
50097	40	0.00	33	34.29	29.30	0	0	0	0	0	0	
50158	40	0.00	33	34.02	29.30	0	0	0	0	0	0	
50224	40	0.00	33	33.93	29.30	0	0	0	0	0	0	
50285	40	0.00	33	34.11	29.30	0	0	0	0	0	0	
50348	40	0.00	33	33.84	29.30	0	0	0	0	0	0	
50409	40	0.00	33	33.76	29.30	0	0	0	0	0	0	
50471	40	0.00	33	34.11	29.30	0	0	0	0	0	0	
50532	40	0.00	33	33.23	29.30	0	0	0	0	0	0	
50598	40	0.00	33	32.79	29.30	0	0	0	0	0	0	
50659	40	0.00	33	32.79	29.30	0	0	0	0	0	0	
50724	40	0.00	33	32.61	29.30	0	0	0	0	0	0	
50785	40	0.00	32	31.64	29.30	0	0	0	0	0	0	
50846	40	0.00	32	31.90	29.30	0	0	0	0	0	0	
50909	40	0.00	32	31.28	29.30	0	0	0	0	0	0	
50973	40	0.00	32	30.75	29.30	0	0	0	0	0	0	
51035	40	0.00	31	30.40	29.30	0	0	0	0	0	0	
51097	60	0.00	31	30.40	29.30	0	0	0	0	0	0	
51162	60	0.00	31	31.10	29.30	0	0	0	0	0	0	
51227	60	0.00	30	27.83	29.30	0	0	0	0	0	0	
51289	60	0.00	29	22.89	29.30	0	0	0	0	0	0	
51354	60	0.00	27	22.36	29.30	0	0	0	0	0	0	
51416	60	0.00	26	21.30	29.30	0	0	0	0	0	0	
51480	60	0.00	25	19.18	29.30	0	0	0	0	0	0	
51539	60	0.00	23	17.15	29.30	0	0	0	0	0	0	
51600	60	0.00	23	23.86	29.30	0	0	0	0	0	0	
51666	60	0.00	21	14.06	29.30	0	0	0	0	0	0	
51727	60	0.00	19	12.74	29.30	0	0	0	0	0	0	
51789	60	0.00	18	11.68	29.30	0	0	0	0	0	0	
51850	60	0.00	16	10.09	29.30	0	0	0	0	0	0	
51912	60	0.00	15	10.71	29.30	0	0	0	0	0	0	
51974	60	0.00	14	11.94	29.30	0	0	0	0	0	0	
52038	60	0.00	15	17.77	29.30	0	0	0	0	0	0	
52101	60	0.00	17	25.18	29.30	0	0	0	0	0	0	
52165	60	0.00	18	21.56	29.30	0	0	0	0	0	0	
52233	70	0.00	17	17.15	29.30	0	0	0	0	0	0	
52294	70	0.00	18	18.30	29.30	0	0	0	0	0	0	
52357	70	0.00	17	17.15	29.30	0	0	0	0	0	0	
52421	70	0.00	17	18.21	29.30	0	0	0	0	0	0	
52484	70	0.00	17	17.50	29.30	0	0	0	0	0	0	
52545	70	0.00	17	15.65	29.30	0	0	0	0	0	0	
52607	70	0.00	16	14.15	29.30	0	0	0	0	0	0	
52668	70	0.00	16	13.09	29.30	0	0	0	0	0	0	
52731	70	0.00	15	11.85	29.30	0	0	0	0	0	0	
52795	70	0.00	14	11.32	29.30	0	0	0	0	0	0	
52857	70	0.00	13	11.06	29.30	0	0	0	0	0	0	
52919	70	0.00	12	8.94	29.30	0	0	0	0	0	0	
52983	70	0.00	12	9.29	29.30	0	0	0	0	0	0	
53045	70	0.00	11	7.88	29.30	0	0	0	0	0	0	
53110	70	0.00	10	7.97	29.30	0	0	0	0	0	0	
53171	70	0.00	9	6.56	29.30	0	0	0	0	0	0	
53233	70	0.00	8	5.50	29.30	0	0	0	0	0	0	
53295	70	0.00	8	5.24	29.30	0	0	0	0	0	0	
53356	70	0.00	7	4.35	29.30	0	0	0	0	0	0	
53418	70	0.00	6	2.86	29.30	0	0	0	0	0	0	
53483	70	0.00	5	2.59	29.30	0	0	0	0	0	0	
53545	70	0.00	4	1.54	29.30	0	0	0	0	0	0	
53606	70	0.00	3	-2.17	29.30	0	0	0	0	0	0	
53668	70	0.00	2	0.65	29.30	0	0	0	0	0	0	
53730	70	0.00	2	0.65	29.30	0	0	0	0	0	0	
53794	70	0.00	1	-0.67	29.40	0	0	0	0	0	0	
53856	70	0.00	1	-0.67	29.30	0	0	0	0	0	0	
53914	70	0.00	0	-0.76	29.30	0	0	0	0	0	0	
53973	70	0.00	0	-0.94	29.30	0	0	0	0	0	0	
54034	70	0.00	0	-1.12	29.40	0	0	0	0	0	0	
54096	70	0.00	0	-0.59	29.40	0	0	0	0	0	0	
54158	70	0.00	0	-1.12	29.40	0	0	0	0	0	0	
54223	70	0.00	0	-0.94	29.40	0	0	0	0	0	0	
54284	70	0.00	0	-0.85	29.40	0	0	0	0	0	0	
54345	70	0.00	0	-0.85	29.40	0	0	0	0	0	0	
54407	70	0.00	0	-0.76	29.40	0	0	0	0	0	0	
54469	70	0.00	0	-0.94	29.40	0	0	0	0	0	0	
54531	70	0.00	0	-0.76	29.40	0	0	0	0	0	0	
54593	70	0.00	0	-1.46	29.40	0	0	0	0	0	0	
54655	70	0.00	0	-1.38	29.40	0	0	0	0	0	0	
54717	70	0.00	0	-0.41	29.40	0	0	0	0	0	0	
54779	70	0.00	0	-0.85	29.40	0	0	0	0	0	0	
54840	70	0.00	0	-0.85	29.40	0	0	0	0	0	0	
54902	70	0.00	0	-1.46	29.40	0	0	0	0	0	0	
54966	70	0.00	0	-0.85	29.40	0	0	0	0	0	0	
55028	70	0.00	0	-1.20	29.40	0	0	0	0	0	0	
55093	70	0.00	0	-0.94	29.40	0	0	0	0	0	0	
55154	70	0.00	0	-0.85	29.40	0	0	0	0	0	0	
55219	70	0.00	0	-1.03	29.40	0	0	0	0	0	0	
55284	70	0.00	-1	-1.20	29.40	0	0	0	0	0	0	
55352	70	0.00	0	-0.94	29.40	0	0	0	0	0	0	
55417	70	0.00	0	-0.76	29.40	0	0	0	0	0	0	
55481	70	0.00	0	-0.76	29.40	0	0	0	0	0	0	
55547	70	0.00	0	-1.03	29.40	0	0	0	0	0	0	
55611	70	0.00	0	-0.76	29.40	0	0	0	0	0	0	
55680	70	0.00	0	-1.03	29.40	0	0	0	0	0	0	
55744	70	0.00	0	-0.76	29.40	0	0	0	0	0	0	
55809	70	0.00	0	-0.85	29.40	0	0	0	0	0	0	
55874	70	0.00	0	-0.67	29.40	0	0	0	0	0	0	
55939	70	0.00	0	-0.76	29.40	0	0	0	0	0	0	
56004	70	0.00	0	-0.41	29.40	0	0	0	0	0	0	
56070	70	0.00	0	-0.59	29.40	0	0	0	0	0	0	
56169	70	0.00	0	-0.67	29.40	0	0	0	0	0	0	
56235	70	0.00	0	-0.94	29.40	0	0	0	0	0	0	
56300	70	0.00	0	-0.76	29.40	0	0	0	0	0	0	
56365	70	0.00	0	-0.50	29.40	0	0	0	0	0	0	
56427	70	0.00	0	-1.03	29.40	0	0	0	0	0	0	
56497	70	0.00	0	-0.76	29.40	0	0	0	0	0	0	
56561	70	0.00	0	-0.76	29.40	0	0	0	0	0	0	
56626	70	0.00	0	-0.50	29.40	0	0	0	0	0	0	
56691	70	0.00	0	-0.76	29.40	0	0	0	0	0	0	
56756	70	0.00	0	-0.59	29.40	0	0	0	0	0	0	
56822	70	0.00	0	-0.67	29.40	0	0	0	0	0	0	
56890	70	0.00	0	-0.85	29.40	0	0	0	0	0	0	
56956	70	0.00	0	-0.76	29.40	0	0	0	0	0	0	
57030	70	0.00	0	-0.85	29.40	0	0	0	0	0	0	
57095	70	0.00	0	-1.29	29.40	0	0	0	0	0	0	
57165	70	0.00	0	-0.67	29.40	0	0	0	0	0	0	
57229	70	0.00	0	-1.46	29.40	0	0	0	0	0	0	
57294	70	0.00	-1	-1.29	29.40	0	0	0	0	0	0	
57355	70	0.00	-1	-1.12	29.40	0	0	0	0	0	0	
57416	70	0.00	-1	-1.03	29.40	0	0	0	0	0	0	
57478	70	0.00	-1	-1.29	29.40	0	0	0	0	0	0	
57544	70	0.00	-1	-1.12	29.40	0	0	0	0	0	0	
57606	70	0.00	0	-0.50	29.40	0	0	0	0	0	0	
57670	70	0.00	0	-1.03	29.40	0	0	0	0	0	0	
57735	70	0.00	0	-0.41	29.40	0	0	0	0	0	0	
57802	70	0.00	0	-0.59	29.40	0	0	0	0	0	0	
57867	70	0.00	0	-0.59	29.40	0	0	0	0	0	0	
57933	70	0.00	0	-0.85	29.40	0	0	0	0	0	0	
57994	70	0.00	0	-0.67	29.40	0	0	0	0	0	0	
58060	70	0.00	0	-0.59	29.40	0	0	0	0	0	0	
58124	70	0.00	0	-0.85	29.40	0	0	0	0	0	0	
58190	70	0.00	0	-0.59	29.40	0	0	0	0	0	0	
58254	70	0.00	0	-0.94	29.40	0	0	0	0	0	0	
58323	70	0.00	0	-0.85	29.40	0	0	0	0	0	0	
58387	70	0.00	0	-0.41	29.40	0	0	0	0	0	0	
58453	70	0.00	0	-0.76	29.40	0	0	0	0	0	0	
58517	70	0.00	0	-0.59	29.40	0	0	0	0	0	0	
58582	70	0.00	0	-0.76	29.40	0	0	0	0	0	0	
58653	70	0.00	0	-0.50	29.40	0	0	0	0	0	0	
58718	70	0.00	0	-0.59	29.40	0	0	0	0	0	0	
58783	70	0.00	0	-0.50	29.40	0	0	0	0	0	0	
58848	70	0.00	0	-0.50	29.40	0	0	0	0	0	0	
58913	70	0.00	0	-0.41	29.40	0	0	0	0	0	0	
58978	70	0.00	0	-0.41	29.40	0	0	0	0	0	0	
59047	70	0.00	0	-1.03	29.40	0	0	0	0	0	0	
59111	70	0.00	0	-0.41	29.40	0	0	0	0	0	0	
59177	70	0.00	0	-0.76	29.40	0	0	0	0	0	0	
59241	70	0.00	0	-0.94	29.50	0	0	0	0	0	0	
59306	70	0.00	0	-1.20	29.50	0	0	0	0	0	0	
59371	70	0.00	0	-1.12	29.50	0	0	0	0	0	0	
59442	70	0.00	0	-0.41	29.40	0	0	0	0	0	0	
59506	70	0.00	0	-0.59	29.50	0	0	0	0	0	0	
59572	70	0.00	0	-1.03	29.50	0	0	0	0	0	0	
59636	70	0.00	0	-0.94	29.50	0	0	0	0	0	0	
59702	70	0.00	0	-0.50	29.50	0	0	0	0	0	0	
59767	70	0.00	0	-0.32	29.50	0	0	0	0	0	0	
59835	70	0.00	0	-0.32	29.50	0	0	0	0	0	0	
59900	70	0.00	0	-0.85	29.50	0	0	0	0	0	0	
59965	70	0.00	0	-0.94	29.50	0	0	0	0	0	0	
60030	70	0.00	0	-0.50	29.50	0	0	0	0	0	0	
60095	70	0.00	0	-1.12	29.50	0	0	0	0	0	0	
60160	70	0.00	0	-1.03	29.50	0	0	0	0	0	0	
60228	70	0.00	0	-0.76	29.50	0	0	0	0	0	0	
60296	70	0.00	0	-1.03	29.50	0	0	0	0	0	0	
60360	70	0.00	0	-0.94	29.50	0	0	0	0	0	0	
60425	70	0.00	0	-0.76	29.50	0	0	0	0	0	0	
60490	70	0.00	0	-0.85	29.50	0	0	0	0	0	0	
60559	70	0.00	0	-0.32	29.50	0	0	0	0	0	0	
60624	70	0.00	0	-0.59	29.50	0	0	0	0	0	0	
60689	70	0.00	0	-0.41	29.50	0	0	0	0	0	0	
60743	70	0.00	0	-0.67	29.50	0	0	0	0	0	0	
60799	70	0.00	0	-0.41	29.50	0	0	0	0	0	0	
60854	70	0.00	0	-0.85	29.50	0	0	0	0	0	0	
60912	70	0.00	0	-0.76	29.50	0	0	0	0	0	0	
60968	70	0.00	0	-0.85	29.50	0	0	0	0	0	0	
61025	70	0.00	0	-0.94	29.50	0	0	0	0	0	0	
61080	70	0.00	0	-1.12	29.50	0	0	0	0	0	0	
61136	70	0.00	0	-0.76	29.50	0	0	0	0	0	0	
61190	70	0.00	0	-0.41	29.50	0	0	0	0	0	0	
61249	70	0.00	0	-0.76	29.50	0	0	0	0	0	0	
61305	70	0.00	0	-0.67	29.50	0	0	0	0	0	0	
61359	70	0.00	0	-0.50	29.50	0	0	0	0	0	0	
61414	70	0.00	0	-0.85	29.50	0	0	0	0	0	0	
61469	70	0.00	0	-0.67	29.50	0	0	0	0	0	0	
61525	70	0.00	0	-0.76	29.50	0	0	0	0	0	0	
61583	70	0.00	0	-0.85	29.50	0	0	0	0	0	0	
61638	70	0.00	0	-0.76	29.50	0	0	0	0	0	0	
61694	70	0.00	0	-0.59	29.50	0	0	0	0	0	0	
61751	70	0.00	0	-1.12	29.50	0	0	0	0	0	0	
61806	70	0.00	0	-0.76	29.50	0	0	0	0	0	0	
61865	70	0.00	0	-0.67	29.50	0	0	0	0	0	0	
61920	70	0.00	0	-0.67	29.50	0	0	0	0	0	0	
61974	70	0.00	0	-0.85	29.50	0	0	0	0	0	0	
62030	70	0.00	0	-0.50	29.50	0	0	0	0	0	0	
62085	70	0.00	0	-0.59	29.50	0	0	0	0	0	0	
62140	70	0.00	0	-1.12	29.50	0	0	0	0	0	0	
62199	70	0.00	0	-0.67	29.50	0	0	0	0	0	0	
62254	70	0.00	0	-1.03	29.50	0	0	0	0	0	0	
62308	70	0.00	0	-0.76	29.50	0	0	0	0	0	0	
62363	70	0.00	0	-0.67	29.50	0	0	0	0	0	0	
62421	70	0.00	0	-1.12	29.50	0	0	0	0	0	0	
62476	70	0.00	0	-0.85	29.50	0	0	0	0	0	0	
62534	70	0.00	0	-0.94	29.50	0	0	0	0	0	0	
62590	70	0.00	0	-0.23	29.50	0	0	0	0	0	0	
62645	70	0.00	0	-0.32	29.50	0	0	0	0	0	0	
62699	70	0.00	0	-0.67	29.50	0	0	0	0	0	0	
62755	70	0.00	0	-1.29	29.50	0	0	0	0	0	0	
62810	70	0.00	0	-0.76	29.50	0	0	0	0	0	0	
62868	70	0.00	0	-0.67	29.50	0	0	0	0	0	0	
62924	70	0.00	0	-0.67	29.50	0	0	0	0	0	0	
62978	70	0.00	0	-0.85	29.50	0	0	0	0	0	0	
63033	70	0.00	0	-1.29	29.50	0	0	0	0	0	0	
63088	70	0.00	0	-1.03	29.50	0	0	0	0	0	0	
63149	70	0.00	0	-1.03	29.50	0	0	0	0	0	0	
63204	70	0.00	0	-1.20	29.50	0	0	0	0	0	0	
63259	70	0.00	-1	-1.12	29.50	0	0	0	0	0	0	
63315	70	0.00	0	-0.94	29.50	0	0	0	0	0	0	
63370	70	0.00	-1	-1.12	29.50	0	0	0	0	0	0	
63424	70	0.00	0	-0.67	29.50	0	0	0	0	0	0	
63483	70	0.00	0	-0.94	29.50	0	0	0	0	0	0	
63538	70	0.00	0	-1.20	29.50	0	0	0	0	0	0	
63593	70	0.00	-1	-1.20	29.50	0	0	0	0	0	0	
63649	70	0.00	0	-0.41	29.50	0	0	0	0	0	0	
63704	70	0.00	0	-1.12	29.50	0	0	0	0	0	0	
63758	70	0.00	-1	-1.20	29.50	0	0	0	0	0	0	
63820	70	0.00	-1	-1.38	29.50	0	0	0	0	0	0	
63875	70	0.00	-1	-1.12	29.50	0	0	0	0	0	0	
63929	70	0.00	-1	-1.20	29.50	0	0	0	0	0	0	
63984	70	0.00	-1	-1.20	29.50	0	0	0	0	0	0	
64040	70	0.00	-1	-1.03	29.50	0	0	0	0	0	0	
64095	70	0.00	-1	-0.94	29.50	0	0	0	0	0	0	
64153	70	0.00	-1	-1.20	29.50	0	0	0	0	0	0	
64209	70	0.00	0	-0.59	29.50	0	0	0	0	0	0	
64263	70	0.00	-1	-1.38	29.50	0	0	0	0	0	0	
64318	70	0.00	-1	-1.29	29.50	0	0	0	0	0	0	
64374	70	0.00	-1	-1.46	29.50	0	0	0	0	0	0	
64429	70	0.00	-1	-1.03	29.50	0	0	0	0	0	0	
64489	70	0.00	-1	-1.46	29.50	0	0	0	0	0	0	
64545	70	0.00	-1	-1.29	29.50	0	0	0	0	0	0	
64600	70	0.00	-1	-1.20	29.50	0	0	0	0	0	0	
64655	70	0.00	-1	-1.20	29.50	0	0	0	0	0	0	
64710	70	0.00	-1	-1.03	29.50	0	0	0	0	0	0	
64769	70	0.00	-1	-0.94	29.50	0	0	0	0	0	0	
64823	70	0.00	-1	-1.12	29.50	0	0	0	0	0	0	
64878	70	0.00	-1	-0.94	29.50	0	0	0	0	0	0	
64934	70	0.00	-1	-1.03	29.50	0	0	0	0	0	0	
64989	70	0.00	-1	-1.20	29.50	0	0	0	0	0	0	
65044	70	0.00	-1	-1.03	29.50	0	0	0	0	0	0	
65103	70	0.00	-1	-1.20	29.50	0	0	0	0	0	0	
65158	70	0.00	-1	-0.94	29.50	0	0	0	0	0	0	
65215	70	0.00	-1	-0.85	29.50	0	0	0	0	0	0	
65271	70	0.00	0	-0.67	29.50	0	0	0	0	0	0	
65325	70	0.00	0	-0.67	29.50	0	0	0	0	0	0	
65380	70	0.00	0	-0.94	29.50	0	0	0	0	0	0	
65438	70	0.00	0	-1.20	29.50	0	0	0	0	0	0	
65494	70	0.00	0	-0.50	29.50	0	0	0	0	0	0	
65549	70	0.00	0	-0.67	29.50	0	0	0	0	0	0	
65604	70	0.00	0	-0.85	29.50	0	0	0	0	0	0	
65659	70	0.00	0	-0.50	29.50	0	0	0	0	0	0	
65714	70	0.00	0	-1.38	29.50	0	0	0	0	0	0	
65772	70	0.00	0	-0.76	29.50	0	0	0	0	0	0	
65828	70	0.00	0	-0.50	29.50	0	0	0	0	0	0	
65885	70	0.00	0	-0.41	29.50	0	0	0	0	0	0	
65940	70	0.00	0	-1.03	29.50	0	0	0	0	0	0	
65996	70	0.00	0	-0.76	29.50	0	0	0	0	0	0	
66054	70	0.00	0	-1.03	29.50	0	0	0	0	0	0	
66108	70	0.00	0	-1.12	29.50	0	0	0	0	0	0	
66163	70	0.00	0	-0.67	29.50	0	0	0	0	0	0	
66219	70	0.00	0	-0.59	29.50	0	0	0	0	0	0	
66274	70	0.00	0	-0.94	29.50	0	0	0	0	0	0	
66328	70	0.00	0	-0.59	29.50	0	0	0	0	0	0	
66387	70	0.00	0	-0.85	29.50	0	0	0	0	0	0	
66442	70	0.00	0	-0.50	29.50	0	0	0	0	0	0	
66497	70	0.00	0	-0.94	29.50	0	0	0	0	0	0	
66555	70	0.00	0	-0.94	29.50	0	0	0	0	0	0	
66610	70	0.00	0	-0.76	29.50	0	0	0	0	0	0	
66665	70	0.00	0	-0.76	29.50	0	0	0	0	0	0	
66724	70	0.00	0	-1.29	29.50	0	0	0	0	0	0	
66778	70	0.00	0	-1.29	29.50	0	0	0	0	0	0	
66833	70	0.00	0	-1.03	29.50	0	0	0	0	0	0	
66888	70	0.00	0	-0.76	29.50	0	0	0	0	0	0	
66944	70	0.00	0	-0.76	29.50	0	0	0	0	0	0	
66999	70	0.00	0	-1.12	29.50	0	0	0	0	0	0	
67057	70	0.00	0	-0.76	29.50	0	0	0	0	0	0	
67112	70	0.00	0	-1.20	29.50	0	0	0	0	0	0	
67167	70	0.00	-1	-1.29	29.50	0	0	0	0	0	0	
67222	70	0.00	-1	-1.03	29.50	0	0	0	0	0	0	
67280	70	0.00	-1	-0.94	29.50	0	0	0	0	0	0	
67338	70	0.00	-1	-1.03	29.50	0	0	0	0	0	0	
67393	70	0.00	0	-0.85	29.50	0	0	0	0	0	0	
67449	70	0.00	0	-0.50	29.50	0	0	0	0	0	0	
67504	70	0.00	0	-0.59	29.50	0	0	0	0	0	0	
67559	70	0.00	0	-0.94	29.50	0	0	0	0	0	0	
67613	70	0.00	0	-0.85	29.50	0	0	0	0	0	0	
67672	70	0.00	0	-0.67	29.50	0	0	0	0	0	0	
67727	80	0.00	0	-1.03	29.60	0	0	0	0	0	0	
