Ms	Code	A0	CA	MA	T	AX	AY	AZ	GX	GY	GZ
0	20	0.00	0	0.04	28.20	-2	8	0	-867	-1162	661	
126	20	0.00	0	0.65	28.10	0	8	0	-323	78	168	
233	20	0.00	0	1.00	28.10	0	7	-1	-237	447	-244	
341	20	0.00	0	0.30	28.10	0	7	0	-211	-224	-237	
448	20	0.00	0	0.56	28.10	0	7	0	-321	-193	-4	
557	20	0.00	0	0.56	28.10	0	7	0	-247	-321	24	
664	20	0.00	0	1.00	28.10	0	7	-1	-261	-136	-136	
772	20	0.00	0	1.17	28.10	0	7	0	-364	-337	-20	
879	20	0.00	0	0.82	28.10	0	7	-1	-470	-534	-13	
987	20	0.00	0	0.56	28.10	0	7	0	-172	-432	3	
1094	20	0.00	0	0.65	28.10	0	8	0	-178	-1235	27	
1210	20	0.00	0	1.35	28.10	0	8	0	-385	-76	95	
1319	20	0.00	0	1.00	28.00	0	7	0	-369	-27	-58	
1427	20	0.00	0	0.91	28.00	0	8	0	-263	-668	-225	
1537	20	0.00	0	0.73	28.00	0	7	-1	-361	-289	-34	
1645	20	0.00	0	1.00	28.00	0	7	0	-444	-197	-5	
1754	20	0.00	0	1.09	28.00	0	7	0	-344	-190	-113	
1862	20	0.00	0	0.30	28.00	0	7	-1	-320	-143	-162	
1971	20	0.00	0	1.00	27.90	0	7	0	-333	-993	-34	
2080	20	0.00	0	0.73	27.90	-1	8	0	-118	-1560	120	
2189	20	0.00	0	0.56	27.90	0	7	0	-325	-770	22	
2298	20	0.00	0	0.73	27.90	0	8	0	-391	-1099	-12	
2413	20	0.00	0	0.82	27.90	0	7	-2	-299	-454	57	
2523	20	0.00	0	0.30	27.90	0	8	0	-138	-19	-50	
2631	20	0.00	0	0.73	27.90	0	7	0	-102	-1122	-411	
2740	20	0.00	0	0.82	27.90	0	7	0	204	-1278	-38	
2848	20	0.00	0	0.91	27.90	0	7	0	90	-3684	3	
2957	20	0.00	0	1.09	27.90	0	8	-2	-887	1075	-355	
3066	20	0.00	0	0.30	27.90	-1	7	0	60	-4140	-53	
3175	20	0.00	0	1.26	27.90	0	7	0	-17	-875	-12	
3284	20	0.00	0	0.04	27.90	-1	7	-1	205	-3070	61	
3392	20	0.00	0	1.00	27.90	0	8	-2	-329	1895	-73	
3501	20	0.00	0	0.91	28.00	0	9	0	-965	-1299	1031	
3616	20	0.00	0	0.39	28.00	0	7	0	-26	-684	-167	
3725	20	0.00	0	0.21	27.90	0	7	-2	-431	1456	154	
3834	20	0.00	0	0.91	27.90	0	8	0	-489	616	-266	
3992	20	0.00	0	0.73	27.90	0	8	-1	-350	627	-179	
4101	20	0.00	0	1.09	27.90	0	7	-1	-537	-215	210	
4209	20	0.00	0	1.09	27.90	0	7	0	166	1860	-50	
4319	20	0.00	0	0.82	27.90	0	7	0	-6	1218	-131	
4427	20	0.00	0	1.00	27.90	0	8	-1	-603	571	208	
4536	20	0.00	0	1.00	27.90	0	7	-1	-248	-1067	-63	
4645	20	0.00	0	0.21	27.90	0	7	0	-167	-356	-163	
4760	20	0.00	0	0.65	27.90	0	7	0	-231	-448	187	
4869	20	0.00	0	0.39	27.90	0	8	0	-430	-268	-74	
4977	20	0.00	0	0.39	27.90	0	7	0	-135	-608	-139	
5087	20	0.00	0	0.39	27.90	0	7	0	-159	-58	180	
5195	20	0.00	0	0.30	27.90	0	7	0	-345	-147	-13	
5304	20	0.00	0	0.30	27.90	0	7	0	-192	-99	-146	
5413	20	0.00	0	0.39	27.90	0	7	0	-143	390	147	
5521	20	0.00	-3	-16.83	28.70	0	7	-1	-231	-238	10	
5634	20	0.00	-5	-17.00	28.80	0	7	0	-370	-1734	-148	
5745	20	0.00	-7	-16.04	28.70	-1	7	0	-826	-526	-212	
5857	20	0.00	-7	-4.86	28.20	0	8	-2	-342	78	-2	
5975	20	0.00	-6	-3.90	28.10	0	8	-1	-526	564	333	
6085	20	0.00	-6	-5.13	28.20	0	7	-2	-707	3083	560	
6197	20	0.00	-7	-12.46	28.50	-1	7	0	-352	-1837	-565	
6310	20	0.00	-9	-15.08	28.60	-1	8	0	-194	463	19	
6421	20	0.00	-10	-15.78	28.60	4	7	-12	-628	5833	-126	
6535	20	0.00	-11	-16.21	28.70	1	8	0	156	-456	-163	
6647	20	0.00	-12	-15.86	28.60	0	8	0	-488	-275	339	
6761	20	0.00	-13	-16.65	28.60	1	8	0	-234	-1322	141	
6874	20	0.00	-13	-16.74	28.60	0	7	-2	-331	-179	-561	
6987	20	0.00	-14	-16.91	28.60	-2	10	-3	-1443	196	393	
7107	20	0.00	-14	-16.48	28.50	0	8	-1	-398	-708	393	
7220	20	0.00	-15	-16.83	28.50	0	8	0	-244	-1049	213	
7333	20	0.00	-15	-15.95	28.50	0	7	-1	1074	-2772	209	
7446	20	0.00	-15	-15.43	28.50	0	8	-1	71	276	-142	
7559	20	0.00	-15	-14.99	28.50	-2	6	1	-81	-113	-1100	
7673	20	0.00	-15	-15.08	28.40	1	8	0	342	-394	-95	
7785	20	0.00	-15	-14.64	28.40	-4	3	7	-234	1077	1856	
7899	20	0.00	-15	-14.99	28.40	0	7	-1	-485	-1112	-11	
8011	20	0.00	-15	-14.90	28.40	0	7	0	-99	286	123	
8125	20	0.00	-15	-14.99	28.40	0	7	-1	-133	187	-163	
8245	20	0.00	-15	-15.25	28.40	0	8	-1	-256	1423	-330	
8358	20	0.00	-15	-15.08	28.40	0	7	-1	-551	-3522	135	
8471	20	0.00	-15	-14.81	28.40	1	8	-1	-341	-2561	-156	
8584	20	0.00	-15	-15.17	28.40	-4	7	0	391	2327	-184	
8698	20	0.00	-14	-14.38	28.40	0	8	0	-93	-837	137	
8810	20	0.00	-14	-13.86	28.30	1	8	-1	-323	-464	-387	
8924	20	0.00	-14	-13.86	28.40	0	7	-1	-480	-1290	39	
9036	20	0.00	-14	-12.72	28.30	1	6	-2	-171	450	483	
9150	20	0.00	-14	-13.94	28.30	0	8	0	-186	445	-220	
9263	20	0.00	-14	-16.56	28.40	0	7	-1	-18	284	-14	
9383	20	0.00	-15	-16.91	28.50	0	8	-1	-449	-358	23	
9495	20	0.00	-15	-16.83	28.50	0	8	0	-122	1053	-204	
9609	20	0.00	-15	-16.04	28.40	0	8	-1	-301	-590	-120	
9722	20	0.00	-15	-13.59	28.30	0	8	0	-588	-3214	-189	
9835	20	0.00	-14	-12.72	28.20	0	7	0	-617	-1789	-37	
9998	20	0.00	-13	-8.62	28.00	1	7	-1	-91	-129	-104	
10111	20	0.00	-12	-8.18	28.00	-1	7	0	-314	-917	-162	
10223	20	0.00	-11	-8.27	28.00	0	8	-1	-343	-802	12	
10337	20	0.00	-10	-8.01	28.00	0	7	-1	-166	122	163	
10450	20	0.00	-10	-8.01	28.00	0	7	-1	-161	2	-54	
10569	20	0.00	-9	-8.09	28.00	0	7	-1	-368	-340	-12	
10682	20	0.00	-9	-7.83	28.10	0	7	-1	-282	128	47	
10794	20	0.00	-9	-7.92	28.10	0	7	0	29	1934	-204	
10905	20	0.00	-8	-7.74	28.00	0	7	0	-357	270	346	
11018	20	0.00	-8	-8.09	28.10	1	8	0	-144	394	-308	
11130	20	0.00	-8	-8.09	28.10	0	7	-1	29	1756	-76	
11241	20	0.00	-8	-7.92	28.10	0	7	-1	-463	-1696	99	
11354	20	0.00	-8	-7.92	28.10	0	7	0	-364	-270	-182	
11465	20	0.00	-8	-8.35	28.10	0	7	0	-28	256	28	
11578	20	0.00	-8	-8.62	28.10	0	7	0	-341	-40	-81	
11696	20	0.00	-8	-8.27	28.10	0	7	-1	-380	-237	104	
11808	20	0.00	-8	-8.62	28.10	0	7	0	-140	-145	-149	
11920	20	0.00	-8	-8.18	28.10	0	7	-1	-241	-52	64	
12033	20	0.00	-8	-8.27	28.10	0	7	0	-377	-458	54	
12145	20	0.00	-8	-8.27	28.10	0	7	0	-173	-22	-161	
12257	20	0.00	-8	-7.74	28.10	0	7	-1	-173	-214	127	
12369	20	0.00	-8	-8.09	28.10	0	8	-1	-871	-8904	139	
12481	20	0.00	-8	-10.19	28.20	0	7	-1	-192	-300	381	
12594	20	0.00	-9	-14.90	28.40	0	7	0	429	4558	197	
12708	20	0.00	-10	-12.02	28.30	0	7	-2	-728	672	98	
12828	20	0.00	-9	-7.39	28.10	0	7	-1	-376	-370	-142	
12940	20	0.00	-9	-7.74	28.10	0	7	-1	-20	1390	9	
13052	20	0.00	-9	-8.01	28.10	0	7	-1	-230	-1429	-15	
13164	20	0.00	-8	-8.01	28.10	0	7	0	-553	-781	20	
13276	20	0.00	-8	-7.74	28.10	0	7	0	-94	237	25	
13388	20	0.00	-8	-7.92	28.10	0	7	-1	-35	378	-104	
13500	20	0.00	-8	-7.92	28.10	0	7	-1	-547	-1214	83	
13612	20	0.00	-8	-8.35	28.20	0	7	0	-288	-513	-56	
13724	20	0.00	-8	-8.27	28.20	0	7	0	23	661	-32	
13836	20	0.00	-8	-7.83	28.20	0	7	-1	-406	-545	66	
13956	20	0.00	-8	-8.18	28.20	0	7	0	-380	-667	-109	
14067	20	0.00	-8	-8.44	28.20	0	7	0	36	584	39	
14179	20	0.00	-8	-8.79	28.20	0	7	-1	-270	-56	25	
14292	20	0.00	-8	-8.44	28.20	0	7	-1	-405	-676	-76	
14403	20	0.00	-8	-7.92	28.20	0	8	0	-47	383	-94	
14515	20	0.00	-8	-8.09	28.20	0	7	0	-59	518	-207	
14628	20	0.00	-8	-8.09	28.20	0	8	-1	-725	308	-53	
14739	20	0.00	-8	-8.18	28.20	3	8	0	-2750	15537	139	
14852	20	0.00	-7	-7.13	28.10	0	8	0	-186	12530	-161	
14963	20	0.00	-7	-4.07	28.00	0	7	-1	26	10000	592	
15075	20	0.00	-6	-2.15	27.90	0	7	-1	-849	15880	347	
15194	20	0.00	-5	-4.95	28.00	1	5	0	1	6634	-462	
15306	20	0.00	-5	-4.77	28.00	0	8	-1	13	3962	-211	
15418	20	0.00	-5	-4.60	28.00	0	7	-1	-372	-289	155	
15530	20	0.00	-5	-4.69	28.00	0	7	0	-507	-1160	-51	
15642	20	0.00	-5	-5.04	28.00	0	7	0	-52	101	-13	
15754	20	0.00	-5	-4.69	28.00	0	7	0	-183	-1429	-169	
15867	20	0.00	-5	-4.86	28.00	1	6	0	-1164	5599	-259	
16028	20	0.00	-4	-4.16	28.00	0	7	0	317	681	64	
16141	20	0.00	-4	-4.34	28.00	1	8	0	136	6881	168	
16253	20	0.00	-4	-4.69	28.00	0	8	0	-876	-1435	-290	
16371	20	0.00	-4	-4.69	28.00	0	7	0	-835	-1738	-163	
16483	20	0.00	-4	-4.60	28.00	0	7	0	408	-6351	91	
16596	20	0.00	-4	-3.90	28.00	0	8	0	-146	668	-109	
16707	20	0.00	-4	-3.64	28.00	0	7	0	-275	-718	53	
16820	20	0.00	-4	-4.07	28.00	0	7	0	-141	-225	10	
16932	20	0.00	-4	-4.16	28.00	0	7	0	-397	-1090	-7	
17043	20	0.00	-4	-3.55	28.00	0	7	0	-366	-695	10	
17156	20	0.00	-4	-3.46	28.00	0	7	0	-130	201	13	
17267	20	0.00	-3	-3.29	28.10	1	7	0	-252	-552	-20	
17379	20	0.00	-3	-3.82	28.10	0	7	0	-381	-607	0	
17498	20	0.00	-3	-3.90	28.10	1	7	0	-128	77	2	
17609	20	0.00	-3	-3.55	28.10	0	7	0	-191	-96	-25	
17722	20	0.00	-3	-3.46	28.10	0	7	0	-388	-544	4	
17835	20	0.00	-3	-4.34	28.10	0	7	0	-239	-403	-29	
17946	20	0.00	-3	-4.25	28.10	0	7	0	-163	-86	-12	
18058	20	0.00	-3	-3.82	28.10	1	7	0	-292	-165	-22	
18171	20	0.00	-3	-4.34	28.10	0	7	0	-244	-63	-29	
18282	20	0.00	-3	-3.38	28.10	0	7	0	-82	517	-38	
18394	20	0.00	-3	-3.29	28.10	0	7	0	-257	-429	2	
18506	20	0.00	-3	-3.99	28.10	0	7	0	-497	-1089	-13	
18618	20	0.00	-3	-3.64	28.10	0	7	0	-121	-70	13	
18737	20	0.00	-3	-3.82	28.10	0	7	0	-161	68	-60	
18848	20	0.00	-3	-4.34	28.10	0	7	0	-494	-935	71	
18961	20	0.00	-3	-3.73	28.10	0	7	0	-302	-503	-20	
19073	20	0.00	-3	-3.73	28.10	0	7	0	15	223	54	
19184	20	0.00	-3	-4.07	28.10	0	7	0	-401	-566	-51	
19297	20	0.00	-3	-4.07	28.20	1	7	0	-479	-729	-67	
19409	20	0.00	-3	-3.73	28.10	0	8	0	638	-594	-65	
19521	20	0.00	-3	-4.25	28.20	0	7	0	560	-1481	-1113	
19633	20	0.00	-3	-4.16	28.20	0	8	0	442	-188	-1315	
19745	20	0.00	-4	-4.34	28.20	0	7	-1	386	683	-519	
19864	20	0.00	-4	-4.34	28.20	0	8	-1	-431	-321	236	
19976	20	0.00	-4	-3.82	28.20	0	7	-1	-838	-239	399	
20089	20	0.00	-4	-4.42	28.20	0	7	-1	-753	-309	935	
20200	20	0.00	-4	-5.04	28.20	0	8	0	-1411	-1706	1817	
20313	20	0.00	-4	-4.16	28.20	4	6	0	-1184	-1934	1809	
20424	20	0.00	-4	-3.82	28.20	2	9	2	124	1369	-1616	
20537	20	0.00	-4	-4.25	28.20	0	8	0	310	-3466	-1215	
20649	20	0.00	-4	-4.60	28.20	0	7	-1	-734	-2521	52	
20761	20	0.00	-4	-4.51	28.20	0	8	0	-302	-1375	607	
20873	20	0.00	-4	-3.90	28.20	-2	8	-2	-236	3069	-132	
20993	20	0.00	-4	-4.60	28.20	1	8	-1	-154	-294	-297	
21104	20	0.00	-4	-4.34	28.20	0	7	0	-110	-208	-514	
21217	20	0.00	-4	-4.51	28.20	0	8	0	15	1356	316	
21329	20	0.00	-4	-4.34	28.20	1	7	0	-458	-35	119	
21440	20	0.00	-4	-4.34	28.20	0	7	0	-545	-1633	-3	
21553	20	0.00	-4	-4.07	28.20	0	7	0	-171	92	-17	
21664	20	0.00	-4	-4.07	28.20	0	7	0	-81	467	-88	
21776	20	0.00	-4	-4.07	28.20	0	7	0	-479	-837	-125	
21889	20	0.00	-4	-4.51	28.20	0	7	0	-244	-517	136	
22050	20	0.00	-4	-4.07	28.20	1	7	0	-208	-251	62	
22169	20	0.00	-4	-4.69	28.20	1	7	0	-432	155	-77	
22281	20	0.00	-4	-4.69	28.20	1	7	0	-103	1153	-32	
22393	20	0.00	-4	-5.04	28.20	0	7	0	-40	305	12	
22505	20	0.00	-4	-4.77	28.30	0	7	0	-496	-95	-78	
22617	20	0.00	-4	-4.77	28.20	0	9	-1	-380	-4523	541	
22729	20	0.00	-4	-4.34	28.20	0	7	1	171	1516	-252	
22841	20	0.00	-4	-4.25	28.30	1	8	0	344	950	-24	
22954	20	0.00	-4	-4.42	28.30	0	7	0	1300	-1767	853	
23065	20	0.00	-4	-4.42	28.20	1	8	-1	2282	1845	497	
23178	20	0.00	-4	-4.60	28.30	1	5	0	1216	2192	-626	
23290	20	0.00	-4	-4.86	28.30	0	7	-2	-406	-632	-595	
23408	20	0.00	-4	-5.13	28.30	0	7	-1	-771	436	354	
23521	20	0.00	-4	-5.47	28.30	1	7	0	-673	1252	337	
23633	20	0.00	-5	-5.82	28.30	1	7	0	-601	-804	-444	
23744	20	0.00	-4	-4.77	28.30	0	7	0	-300	323	-312	
23857	20	0.00	-4	-5.04	28.30	1	7	-2	381	2646	363	
23968	20	0.00	-4	-4.95	28.30	1	7	-1	115	-98	-81	
24081	20	0.00	-5	-5.38	28.30	1	7	-1	-809	414	-419	
24193	20	0.00	-5	-5.04	28.30	0	7	-1	-930	-927	4	
24304	20	0.00	-5	-4.86	28.30	1	7	-1	-507	1622	-92	
24417	20	0.00	-4	-4.51	28.30	0	7	0	-581	147	-228	
24536	20	0.00	-4	-4.77	28.30	0	7	-1	-531	421	-142	
24647	20	0.00	-4	-4.51	28.30	0	7	0	-570	-1172	40	
24760	20	0.00	-4	-4.69	28.30	0	7	-1	-735	-557	-107	
24873	20	0.00	-4	-4.34	28.30	0	7	0	-851	-4063	284	
24984	20	0.00	-4	-3.90	28.30	0	7	0	164	1279	39	
25096	20	0.00	-4	-4.25	28.30	1	7	-1	12	1567	-168	
25209	20	0.00	-4	-4.69	28.30	0	7	0	-661	-1004	19	
25320	20	0.00	-4	-3.46	28.30	0	7	0	-190	-337	148	
25432	20	0.00	-4	-3.29	28.30	1	7	0	59	749	-99	
25544	20	0.00	-3	-3.20	28.30	0	7	0	-565	-815	-75	
25663	20	0.00	-3	-3.55	28.30	1	7	0	-412	-621	147	
25775	20	0.00	-3	-3.11	28.30	1	7	0	173	584	-163	
25886	20	0.00	-3	-3.11	28.30	0	7	-1	-154	-241	-163	
25999	20	0.00	-3	-3.82	28.30	0	7	0	-583	-1202	51	
26111	20	0.00	-3	-3.46	28.30	0	7	0	-111	45	84	
26223	20	0.00	-3	-3.20	28.30	1	7	0	188	794	-244	
26335	20	0.00	-3	-4.42	28.30	0	7	0	39	55	46	
26447	20	0.00	-3	-4.42	28.30	1	7	0	-140	-84	26	
26559	20	0.00	-4	-4.86	28.30	1	8	0	-674	-2743	-10	
26671	20	0.00	-4	-4.69	28.30	0	7	0	37	1255	130	
26790	20	0.00	-4	-4.69	28.30	1	8	-1	-654	1428	-337	
26902	20	0.00	-4	-5.13	28.30	0	6	-1	-1271	-2144	74	
27014	20	0.00	-4	-4.42	28.30	1	7	0	-851	-6042	-318	
27126	20	0.00	-4	-3.82	28.30	3	8	1	411	8491	866	
27238	20	0.00	-4	-4.42	28.30	2	7	-2	42	5248	-228	
27351	20	0.00	-4	-4.69	28.30	0	7	-1	-649	1790	-166	
27462	20	0.00	-4	-4.69	28.30	0	7	0	-401	338	325	
27574	20	0.00	-4	-4.69	28.30	1	7	0	17	1037	-46	
27687	20	0.00	-4	-3.82	28.30	0	7	0	-369	-796	-231	
27798	20	0.00	-4	-4.07	28.40	0	7	0	-483	-1714	139	
27911	20	0.00	-4	-4.16	28.30	1	7	0	-117	-63	78	
28079	20	0.00	-4	-4.42	28.40	1	7	0	-305	-263	-111	
28190	20	0.00	-4	-4.77	28.30	1	7	0	-437	-770	160	
28302	20	0.00	-4	-4.69	28.30	1	7	0	-113	361	-15	
28415	20	0.00	-4	-4.25	28.30	1	7	0	-113	1333	-338	
28526	20	0.00	-4	-4.51	28.40	0	7	0	-357	-77	54	
28639	20	0.00	-4	-4.95	28.40	1	7	0	-324	-964	138	
28752	20	0.00	-4	-4.51	28.30	1	7	0	-153	-260	-180	
28863	20	0.00	-4	-4.69	28.40	0	7	0	-233	-104	-52	
28975	20	0.00	-4	-4.69	28.40	1	7	0	-236	-457	77	
29087	20	0.00	-4	-4.42	28.40	1	7	0	-195	-148	-73	
29206	20	0.00	-4	-4.51	28.40	0	7	0	-227	-89	-87	
29318	20	0.00	-4	-4.34	28.40	1	7	0	-308	-194	98	
29429	20	0.00	-4	-4.16	28.40	1	7	0	-249	44	-56	
29542	20	0.00	-4	-4.16	28.40	0	7	0	-217	-100	-62	
29654	20	0.00	-4	-4.51	28.40	1	7	0	-329	-294	66	
29766	20	0.00	-4	-4.69	28.40	1	7	0	-263	-428	-20	
29878	20	0.00	-4	-4.69	28.40	1	7	0	-219	-127	-47	
29990	20	0.00	-4	-4.60	28.40	1	7	0	-268	-399	38	
30102	20	0.00	-4	-4.34	28.40	1	7	0	-310	-414	16	
30214	20	0.00	-4	-3.99	28.40	1	7	0	-202	145	-59	
30333	20	0.00	-4	-4.25	28.40	1	7	0	-249	93	20	
30444	20	0.00	-4	-4.51	28.40	1	7	0	-240	-168	0	
30556	20	0.00	-4	-4.16	28.40	1	7	0	-173	61	-16	
30668	20	0.00	-4	-4.25	28.40	1	7	0	-226	-39	38	
30781	20	0.00	-4	-4.16	28.40	1	7	0	-292	-312	-64	
30893	20	0.00	-4	-4.34	28.40	1	7	0	-246	-196	-22	
31004	20	0.00	-4	-4.42	28.50	1	7	0	-253	-217	40	
31117	20	0.00	-4	-4.51	28.50	1	7	0	-285	-505	-62	
31229	20	0.00	-4	-4.60	28.50	0	7	0	-252	-227	-15	
31341	20	0.00	-4	-4.69	28.50	1	7	0	-240	-209	38	
31453	20	0.00	-4	-4.42	28.50	1	7	0	-310	-500	-5	
31572	20	0.00	-4	-4.42	28.50	1	7	0	-285	-427	-18	
31683	20	0.00	-4	-4.69	28.50	1	7	0	-247	-233	-1	
31796	20	0.00	-4	-4.34	28.50	1	7	0	-270	-309	-24	
31908	20	0.00	-4	-4.07	28.50	0	7	0	-227	-356	7	
32019	20	0.00	-4	-4.51	28.50	1	7	0	-230	-194	-8	
32132	20	0.00	-4	-4.69	28.50	1	7	0	-236	-87	5	
32243	20	0.00	-4	-4.42	28.50	1	7	0	-261	-306	-18	
32355	20	0.00	-4	-4.42	28.50	1	7	0	-253	-450	13	
32468	20	0.00	-4	-4.16	28.50	0	7	0	-242	-415	-5	
32580	20	0.00	-4	-4.34	28.50	1	7	0	-269	-382	-23	
32699	20	0.00	-4	-4.42	28.50	0	7	0	-330	-682	32	
32811	20	0.00	-4	-3.90	28.50	1	7	0	-220	-485	8	
32922	20	0.00	-4	-4.42	28.50	1	7	0	-274	-424	-46	
33035	20	0.00	-4	-5.38	28.50	1	7	0	-330	-279	-23	
33147	20	0.00	-4	-4.77	28.50	1	7	0	-212	-101	13	
33258	20	0.00	-4	-4.77	28.50	1	7	0	-167	-142	-61	
33371	20	0.00	-4	-4.77	28.50	0	7	0	-283	-377	13	
33482	20	0.00	-4	-4.69	28.50	1	7	0	-268	-293	-17	
33594	20	0.00	-4	-4.86	28.50	1	7	0	-235	-289	-64	
33707	20	0.00	-4	-4.42	28.50	1	7	0	-295	-341	29	
33818	20	0.00	-4	-4.86	28.50	1	7	0	-286	-369	9	
33987	20	0.00	-4	-4.69	28.50	1	7	0	-231	-129	-35	
34099	20	0.00	-4	-4.51	28.50	1	7	0	-275	-203	47	
34212	20	0.00	-4	-4.34	28.60	1	7	0	-285	-297	-35	
34323	20	0.00	-4	-4.69	28.50	0	7	0	-224	-283	-11	
34435	20	0.00	-4	-4.42	28.50	1	7	0	-255	-319	17	
34547	20	0.00	-4	-5.04	28.60	1	7	0	-249	-420	-39	
34660	20	0.00	-4	-4.95	28.50	1	7	0	-252	-209	7	
34772	20	0.00	-4	-4.69	28.60	1	7	0	-237	-105	17	
34883	20	0.00	-4	-5.21	28.60	1	7	0	-272	-339	-49	
34996	20	0.00	-4	-4.95	28.60	1	7	0	-240	-229	17	
35115	20	0.00	-4	-4.60	28.60	1	7	0	-198	-91	18	
35226	20	0.00	-4	-5.04	28.60	0	7	0	-261	-343	-39	
35338	20	0.00	-4	-4.86	28.60	1	7	0	-245	-256	10	
35451	20	0.00	-4	-4.77	28.60	1	7	0	-236	-301	-19	
35562	20	0.00	-4	-4.60	28.60	1	7	0	-255	-405	-40	
35674	20	0.00	-4	-4.69	28.60	1	7	0	-295	-305	26	
35786	20	0.00	-4	-4.69	28.60	1	7	0	-214	-155	0	
35898	20	0.00	-4	-4.69	28.60	0	7	0	-196	257	0	
36010	20	0.00	-4	-4.69	28.60	1	7	0	-317	-333	11	
36122	20	0.00	-4	-4.77	28.60	1	7	0	-263	-332	0	
36241	20	0.00	-4	-5.21	28.60	1	7	0	-174	-100	-19	
36353	20	0.00	-4	-4.60	28.60	0	7	0	-296	-587	-16	
36465	20	0.00	-4	-4.77	28.60	1	7	0	-231	-202	-15	
36577	20	0.00	-4	-4.34	28.60	1	7	0	-116	596	-19	
36690	20	0.00	-4	-4.51	28.60	1	7	0	-267	136	-42	
36801	20	0.00	-4	-4.86	28.60	1	7	0	-319	-337	-16	
36913	20	0.00	-4	-4.69	28.60	1	7	0	-161	-56	27	
37025	20	0.00	-4	-4.86	28.60	1	7	0	-204	-68	-28	
37137	20	0.00	-4	-4.77	28.60	1	7	0	-328	-384	-36	
37249	20	0.00	-4	-4.69	28.60	1	7	0	-335	-462	-12	
37361	20	0.00	-4	-4.69	28.60	1	7	0	-184	-307	-33	
37480	20	0.00	-4	-4.86	28.60	1	7	0	-305	-524	5	
37592	20	0.00	-4	-4.60	28.60	1	7	0	-296	-467	4	
37703	20	0.00	-4	-4.86	28.60	1	7	0	-197	-209	-25	
37816	20	0.00	-4	-4.60	28.60	1	7	0	-227	-223	-3	
37928	20	0.00	-4	-5.13	28.60	1	7	0	-339	-470	-9	
38039	20	0.00	-4	-5.04	28.60	1	7	0	-204	-176	-10	
38152	20	0.00	-4	-5.13	28.70	1	7	0	-196	-281	-1	
38263	20	0.00	-4	-5.13	28.60	1	7	0	-324	-401	-3	
38376	20	0.00	-4	-4.86	28.70	1	7	0	-239	-119	-8	
38488	20	0.00	-4	-4.86	28.70	1	7	0	-164	-104	-32	
38607	20	0.00	-4	-4.86	28.70	1	7	0	-311	-332	-25	
38719	20	0.00	-4	-4.95	28.70	1	7	0	-290	-414	13	
38831	20	0.00	-4	-4.69	28.70	1	7	0	-177	-205	-5	
38942	20	0.00	-4	-4.69	28.70	1	7	0	-287	-229	-29	
39055	20	0.00	-4	-4.42	28.70	1	7	0	-334	-455	-2	
39167	20	0.00	-4	-4.60	28.70	1	7	0	-213	-219	-28	
39279	20	0.00	-4	-5.30	28.70	1	7	0	-188	40	-15	
39391	20	0.00	-4	-5.21	28.70	1	7	0	-288	-289	8	
39503	20	0.00	-4	-4.69	28.70	1	7	0	-254	-401	-13	
39615	20	0.00	-4	-4.16	28.70	1	7	0	-201	-159	3	
39727	20	0.00	-4	-3.99	28.70	1	7	0	-305	-411	4	
39846	20	0.00	-4	-4.69	28.70	1	7	0	-319	-549	-13	
40007	20	0.00	-4	-4.69	28.70	1	7	0	-204	16	-16	
40120	20	0.00	-4	-4.42	28.70	1	7	0	-308	-288	-11	
40232	20	0.00	-4	-4.77	28.70	1	7	0	-255	-277	14	
40344	20	0.00	-4	-4.69	28.70	1	7	0	-212	-243	-12	
40456	20	0.00	-4	-4.95	28.70	1	7	0	-315	-390	-29	
40569	20	0.00	-4	-4.69	28.70	1	7	0	-344	-696	-15	
40680	20	0.00	-4	-4.42	28.70	1	7	0	-231	-424	18	
40793	20	0.00	-4	-4.77	28.70	1	7	0	-262	-290	-4	
40904	20	0.00	-4	-4.51	28.70	1	7	0	-318	-622	-20	
41023	20	0.00	-4	-4.86	28.70	1	7	0	-250	-41	-20	
41135	20	0.00	-4	-4.86	28.70	1	7	0	-202	-28	-30	
41246	20	0.00	-4	-5.13	28.70	1	7	0	-275	-183	-3	
41359	20	0.00	-4	-4.77	28.70	1	7	0	-264	-112	6	
41471	20	0.00	-4	-4.51	28.70	1	7	0	-209	-235	-45	
41582	20	0.00	-4	-4.77	28.70	1	7	0	-292	-457	9	
41695	20	0.00	-4	-4.25	28.70	1	7	0	-352	-670	-27	
41807	20	0.00	-4	-5.21	28.70	1	7	0	-234	-461	-17	
41919	20	0.00	-4	-4.69	28.70	1	7	0	-241	-269	11	
42031	20	0.00	-4	-4.69	28.70	1	7	0	-291	-322	-34	
42150	20	0.00	-4	-4.69	28.70	1	7	0	-203	37	-5	
42262	20	0.00	-4	-4.69	28.70	1	7	0	-147	161	-2	
42374	20	0.00	-4	-4.77	28.70	1	7	0	-259	-204	-31	
42485	20	0.00	-4	-4.60	28.70	1	7	0	-249	-291	9	
42598	20	0.00	-4	-4.51	28.70	1	7	0	-208	-276	-6	
42710	20	0.00	-4	-4.34	28.70	1	7	0	-261	-368	-14	
42821	20	0.00	-4	-4.51	28.70	1	7	0	-330	-408	-28	
42934	20	0.00	-4	-4.16	28.70	1	7	0	-221	-237	5	
43046	20	0.00	-4	-4.16	28.70	1	7	0	-223	-306	-8	
43158	20	0.00	-4	-5.04	28.70	0	7	0	-307	-414	-17	
43270	20	0.00	-4	-4.60	28.70	1	7	0	-221	-159	-10	
43389	20	0.00	-4	-4.86	28.80	1	7	0	-212	-180	-19	
43500	20	0.00	-4	-5.13	28.80	1	7	0	-288	-319	-19	
43613	20	0.00	-4	-4.60	28.70	1	7	0	-283	-284	0	
43724	20	0.00	-4	-4.42	28.70	1	7	0	-215	-264	-41	
43836	20	0.00	-4	-4.51	28.80	1	7	0	-278	-201	17	
43949	20	0.00	-4	-5.04	28.80	1	7	0	-317	-349	8	
44060	20	0.00	-4	-4.77	28.80	1	7	0	-255	-355	-20	
44173	20	0.00	-4	-4.69	28.80	0	7	0	-259	-340	1	
44285	20	0.00	-4	-4.60	28.80	1	7	0	-315	-480	6	
44397	20	0.00	-4	-4.86	28.80	1	7	0	-231	-241	-23	
44516	20	0.00	-4	-4.42	28.80	1	7	0	-201	-181	-14	
44628	20	0.00	-4	-4.69	28.80	1	7	0	-276	-331	-22	
44739	20	0.00	-4	-5.04	28.80	1	7	0	-284	-207	-12	
44852	20	0.00	-4	-4.69	28.80	1	7	0	-223	-144	3	
44964	20	0.00	-4	-4.86	28.80	1	7	0	-241	-358	-17	
45075	20	0.00	-4	-4.69	28.80	1	7	0	-303	-393	-15	
45188	20	0.00	-4	-5.13	28.80	1	7	0	-218	-98	4	
45300	20	0.00	-4	-4.69	28.80	1	7	0	-243	-224	-4	
45412	20	0.00	-4	-4.77	28.80	1	7	0	-285	-408	-1	
45525	20	0.00	-4	-4.69	28.80	1	7	0	-251	-267	-36	
45636	20	0.00	-4	-4.95	28.80	1	7	0	-214	-136	-8	
45755	20	0.00	-4	-4.86	28.80	1	7	0	-302	-454	0	
45867	20	0.00	-4	-4.77	28.80	1	7	0	-288	-235	-11	
46029	20	0.00	-4	-5.04	28.80	1	7	0	-236	-93	3	
46141	20	0.00	-4	-4.60	28.80	1	7	0	-325	-365	39	
46253	20	0.00	-4	-4.42	28.80	1	7	0	-249	-496	-54	
46365	20	0.00	-4	-4.51	28.80	1	7	0	-213	-236	10	
46477	20	0.00	-4	-4.69	28.80	1	7	0	-269	-341	26	
46589	20	0.00	-4	-4.69	28.80	1	7	0	-311	-456	-11	
46701	20	0.00	-4	-4.42	28.80	1	7	0	-222	-299	34	
46813	20	0.00	-4	-5.21	28.90	0	7	0	-313	-680	10	
46932	20	0.00	-4	-4.86	28.90	1	7	0	-355	-458	-29	
47043	20	0.00	-4	-5.04	28.80	1	7	0	-156	-12	13	
47156	20	0.00	-4	-5.13	28.90	1	7	0	-198	138	-26	
47269	20	0.00	-4	-4.86	28.80	0	7	0	-326	-310	-33	
47380	20	0.00	-4	-4.69	28.90	1	7	0	-215	21	10	
47492	20	0.00	-4	-4.42	28.90	1	7	0	-169	142	-9	
47604	20	0.00	-4	-4.60	28.90	1	7	0	-336	-469	-31	
47716	20	0.00	-4	-4.95	28.90	1	7	0	-316	-522	0	
47829	20	0.00	-4	-4.69	28.90	1	7	0	-153	-54	-11	
47940	20	0.00	-4	-4.77	28.90	1	7	0	-217	-151	-1	
48052	20	0.00	-4	-4.69	28.90	1	7	0	-332	-373	-77	
48171	20	0.00	-4	-4.60	28.90	1	7	0	-182	-9	-12	
48283	20	0.00	-4	-4.69	28.90	0	7	0	-210	-231	-4	
48395	20	0.00	-4	-5.13	28.90	1	7	0	-352	-681	-60	
48507	20	0.00	-4	-4.42	28.90	1	7	0	-280	-283	24	
48619	20	0.00	-4	-4.77	28.90	1	7	0	-173	-185	-4	
48731	20	0.00	-4	-5.04	28.90	1	7	0	-270	-292	-49	
48842	20	0.00	-4	-4.69	28.90	0	7	0	-302	-149	-1	
48955	20	0.00	-4	-4.69	28.90	1	7	0	-168	16	12	
49067	20	0.00	-4	-4.69	28.90	1	7	0	-220	-46	-49	
49179	20	0.00	-4	-4.77	28.90	1	7	0	-282	-225	-2	
49298	20	0.00	-4	-4.42	28.90	1	7	0	-236	-296	-5	
49410	20	0.00	-4	-4.69	28.90	1	7	0	-227	-264	-22	
49522	20	0.00	-4	-5.13	28.90	1	7	0	-307	-424	25	
49634	20	0.00	-4	-4.69	28.90	1	7	0	-252	-261	-28	
49746	20	0.00	-4	-4.25	28.90	1	7	0	-234	-289	-7	
49858	20	0.00	-4	-4.69	28.90	1	7	0	-294	-442	-18	
49970	20	0.00	-4	-5.04	28.90	1	7	0	-294	-260	-8	
50081	20	0.00	-4	-4.77	28.90	1	7	0	-213	-30	-36	
50194	20	0.00	-4	-4.51	28.90	1	7	0	-248	-270	-17	
50306	20	0.00	-4	-5.04	28.90	1	7	0	-305	-535	-9	
50425	20	0.00	-4	-5.13	28.90	1	7	0	-199	-368	-18	
50536	20	0.00	-4	-4.69	28.90	0	7	0	-225	-229	-13	
50649	20	0.00	-4	-4.69	28.90	0	7	0	-323	-384	31	
50760	20	0.00	-4	-4.69	28.90	1	7	0	-232	-73	-20	
50873	20	0.00	-4	-4.69	28.90	1	7	0	-178	-23	12	
50985	20	0.00	-4	-4.69	28.90	1	7	0	-296	-398	-10	
51097	20	0.00	-4	-4.77	28.90	1	7	0	-253	-347	7	
51209	20	0.00	-4	-4.69	28.90	0	7	0	-186	-257	22	
51322	20	0.00	-4	-5.04	28.90	1	7	0	-255	-356	12	
51433	20	0.00	-4	-4.69	28.90	1	7	0	-327	-366	-9	
51545	20	0.00	-4	-4.69	28.90	1	7	0	-183	-133	9	
51664	20	0.00	-4	-4.60	28.90	1	7	0	-310	-956	4	
51775	20	0.00	-4	-4.86	28.90	0	7	0	-300	-786	-14	
51938	20	0.00	-4	-4.34	28.90	1	7	0	-234	-279	28	
52050	20	0.00	-4	-4.25	28.90	1	7	0	-291	-537	-20	
52161	20	0.00	-4	-4.34	28.90	1	7	0	-267	-337	-6	
52274	20	0.00	-4	-4.16	28.90	1	7	0	-237	-432	48	
52385	20	0.00	-4	-4.25	28.90	0	7	0	-231	-134	-42	
52497	20	0.00	-4	-4.07	28.90	1	7	0	-256	-168	-3	
52610	20	0.00	-4	-4.42	28.90	0	7	0	-82	720	-33	
52721	20	0.00	-4	-3.99	28.90	1	7	-1	-295	-180	60	
52840	20	0.00	-4	-4.16	28.90	0	7	0	-497	-1601	108	
52952	20	0.00	-4	-4.34	28.90	1	7	0	-209	-234	-124	
53064	20	0.00	-4	-4.51	28.90	1	7	-1	-399	-211	227	
53177	20	0.00	-4	-4.34	28.90	1	7	0	-277	-450	-155	
53289	20	0.00	-4	-4.34	28.90	0	7	0	-97	87	-10	
53401	20	0.00	-4	-4.60	28.90	0	7	0	-166	-182	-83	
53513	20	0.00	-4	-4.60	28.90	1	7	0	-356	-445	-3	
53625	20	0.00	-4	-4.86	28.90	1	7	0	-275	-243	-28	
53737	20	0.00	-4	-4.16	28.90	0	7	0	-200	-257	71	
53849	20	0.00	-4	-4.51	28.90	1	7	0	-293	-720	-117	
53968	20	0.00	-4	-4.60	28.90	1	7	0	-298	116	-54	
54079	20	0.00	-4	-4.51	28.90	0	7	0	-134	289	55	
54192	20	0.00	-4	-4.16	28.90	1	7	0	-266	-758	-47	
54303	20	0.00	-4	-4.69	28.90	0	7	0	-386	-841	-46	
54415	20	0.00	-4	-4.25	28.90	1	7	0	-239	-236	51	
54528	20	0.00	-4	-4.77	29.00	1	7	0	-237	-270	-14	
54639	20	0.00	-4	-3.90	29.00	1	7	0	-332	-642	-37	
54751	20	0.00	-4	-4.51	29.00	0	7	0	-216	11	37	
54864	20	0.00	-4	-4.07	29.00	1	7	0	-99	193	-69	
54976	20	0.00	-4	-4.25	29.00	1	7	0	-261	111	18	
55088	20	0.00	-4	-4.86	29.00	1	7	0	-263	-442	-50	
55207	20	0.00	-4	-4.69	29.00	0	7	0	-222	-571	25	
55318	20	0.00	-4	-4.86	29.00	1	7	0	-345	-634	-28	
55431	20	0.00	-4	-4.69	29.00	1	7	0	-416	-967	-1	
55542	20	0.00	-4	-4.69	29.00	0	7	0	-225	-436	3	
55654	20	0.00	-4	-4.16	29.00	1	7	0	-134	103	-9	
55766	20	0.00	-4	-4.25	29.00	1	7	0	-324	-326	15	
55878	20	0.00	-4	-4.86	29.00	1	7	0	-254	-45	-34	
55990	20	0.00	-4	-4.69	29.00	1	7	0	-151	100	-17	
56103	20	0.00	-4	-4.42	29.00	1	7	0	-227	13	-4	
56214	20	0.00	-4	-4.69	29.00	1	7	0	-175	419	-27	
56333	20	0.00	-4	-4.69	29.00	1	7	-1	-158	169	-28	
56445	20	0.00	-4	-4.34	29.00	0	7	0	-368	-1015	49	
56556	20	0.00	-4	-4.86	29.00	1	7	0	-440	-1089	-17	
56669	20	0.00	-4	-4.86	29.00	0	7	0	-284	-534	9	
56780	20	0.00	-4	-4.86	29.00	0	7	0	-280	-935	61	
56893	20	0.00	-4	-4.86	29.00	1	7	0	-371	-960	-18	
57006	20	0.00	-4	-4.51	29.00	1	7	0	-292	-123	-21	
57117	20	0.00	-4	-4.42	29.00	0	7	0	-168	96	18	
57229	20	0.00	-4	-4.60	29.00	1	7	0	-249	-367	2	
57342	20	0.00	-4	-4.69	29.00	1	7	0	-326	-439	-14	
57453	20	0.00	-4	-4.42	29.00	1	7	0	-216	-167	-16	
57572	20	0.00	-4	-4.69	29.00	0	7	0	-268	-452	-19	
57684	20	0.00	-4	-4.69	29.00	1	7	0	-354	-229	-1	
57796	20	0.00	-4	-4.69	29.00	1	7	0	-178	-82	-16	
57958	20	0.00	-4	-4.42	29.00	1	7	0	-271	-487	-3	
58070	20	0.00	-4	-4.95	29.00	1	7	0	-314	-533	19	
58182	20	0.00	-4	-4.69	29.00	1	7	0	-248	-603	-34	
58294	20	0.00	-4	-4.95	29.00	1	7	0	-253	-540	27	
58407	20	0.00	-4	-4.86	29.00	1	7	0	-358	-627	-10	
58518	20	0.00	-4	-4.51	29.00	1	7	0	-279	-382	-40	
58630	20	0.00	-4	-4.69	29.00	1	7	0	-139	-25	24	
58749	20	0.00	-4	-4.69	29.00	1	7	0	-261	-87	-20	
58861	20	0.00	-4	-4.42	29.00	1	7	0	-318	-417	-36	
58974	20	0.00	-4	-4.69	29.00	1	7	0	-193	-147	-3	
59085	20	0.00	-4	-4.51	29.10	1	7	0	-224	-130	-7	
59197	20	0.00	-4	-4.51	29.10	1	7	0	-359	-618	-33	
59310	20	0.00	-4	-4.51	29.10	1	7	0	-316	-514	-8	
59421	20	0.00	-4	-4.16	29.10	1	7	0	-140	-144	-24	
59533	20	0.00	-4	-4.69	29.10	1	7	0	-277	-164	3	
59646	20	0.00	-4	-4.69	29.10	1	7	0	-375	-261	-58	
59757	20	0.00	-4	-4.69	29.10	1	7	0	-180	-190	-19	
59870	20	0.00	-4	-4.69	29.10	1	7	0	-135	-220	-14	
59988	20	0.00	-4	-4.51	29.10	1	7	0	-334	-639	-7	
60100	20	0.00	-4	-4.60	29.10	1	7	0	-253	-527	8	
60212	20	0.00	-4	-4.95	29.10	1	7	0	-162	-105	18	
60324	20	0.00	-4	-4.77	29.10	1	7	0	-264	-281	13	
60436	20	0.00	-4	-4.95	29.10	1	7	0	-318	-506	-59	
60548	20	0.00	-4	-4.86	29.10	1	7	0	-165	34	-3	
60660	20	0.00	-4	-4.77	29.10	1	7	0	-226	-103	41	
60772	20	0.00	-4	-5.13	29.10	1	7	0	-337	-614	-48	
60885	20	0.00	-4	-5.47	29.10	1	7	0	-246	-329	12	
60996	20	0.00	-4	-4.86	29.10	1	7	0	-208	-24	14	
61115	20	0.00	-5	-5.56	29.10	1	7	0	-305	-453	-55	
61227	20	0.00	-4	-4.69	29.10	0	7	0	-303	-225	1	
61339	20	0.00	-4	-4.42	29.10	1	7	0	-176	136	1	
61451	20	0.00	-5	-5.56	29.10	1	7	0	-267	-270	-38	
61563	20	0.00	-5	-4.95	29.10	1	7	0	-332	-478	32	
61675	20	0.00	-4	-4.77	29.10	1	7	0	-233	-289	-15	
61787	20	0.00	-4	-4.77	29.10	1	7	0	-227	-97	-23	
61899	20	0.00	-4	-4.95	29.10	1	7	0	-296	-335	17	
62011	20	0.00	-4	-4.77	29.10	1	7	0	-291	-325	-19	
62123	20	0.00	-4	-4.95	29.10	1	7	0	-172	2	-42	
62235	20	0.00	-4	-4.07	29.10	1	7	0	-216	-45	-19	
62345	20	0.00	-4	-4.34	29.10	1	7	0	-221	239	-21	
62458	20	0.00	-4	-3.82	29.10	1	7	0	-189	264	-38	
62569	20	0.00	-4	-4.60	29.10	0	7	0	-208	-251	-6	
62682	20	0.00	-4	-4.69	29.10	1	7	0	-275	-324	19	
62793	20	0.00	-4	-5.21	29.10	1	7	0	-280	-424	-56	
62906	20	0.00	-4	-4.95	29.10	0	7	0	-272	-457	6	
63018	20	0.00	-4	-4.95	29.20	1	7	0	-300	-330	27	
63129	20	0.00	-4	-4.69	29.10	1	7	0	-245	-299	-40	
63242	20	0.00	-4	-4.86	29.20	1	7	0	-176	-59	27	
63354	20	0.00	-4	-4.77	29.20	1	7	0	-250	-38	-10	
63472	20	0.00	-4	-4.86	29.20	0	7	0	-311	-538	-66	
63584	20	0.00	-4	-4.77	29.20	1	7	0	-229	-383	35	
63697	20	0.00	-4	-4.51	29.20	1	7	0	-273	-573	-14	
63808	20	0.00	-4	-4.25	29.20	1	7	0	-417	-938	4	
63971	20	0.00	-4	-4.95	29.20	1	7	0	-173	612	15	
64083	20	0.00	-4	-5.04	29.20	1	7	0	-265	-372	-32	
64194	20	0.00	-4	-5.04	29.20	1	7	0	-333	-852	-5	
64307	20	0.00	-4	-4.69	29.20	1	7	0	-273	-439	22	
64418	20	0.00	-4	-5.38	29.20	1	7	0	-210	-324	-25	
64530	20	0.00	-4	-5.13	29.20	1	7	0	-234	-145	-28	
64650	20	0.00	-4	-4.60	29.20	1	7	0	-197	-52	-3	
64762	20	0.00	-4	-4.77	29.20	1	7	0	-182	-84	-39	
64874	20	0.00	-4	-4.69	29.20	1	7	0	-285	-136	44	
64986	20	0.00	-4	-5.13	29.20	1	7	0	-278	-447	-71	
65097	20	0.00	-4	-4.86	29.20	0	7	0	-228	-29	-12	
65210	20	0.00	-4	-4.86	29.20	1	7	0	-225	-226	38	
65322	20	0.00	-4	-4.86	29.20	1	7	0	-324	-527	-81	
65433	20	0.00	-4	-4.95	29.20	1	7	0	-251	-319	2	
65546	20	0.00	-4	-4.69	29.20	1	7	0	-267	-438	27	
65658	20	0.00	-4	-4.86	29.20	1	7	0	-355	-735	-79	
65770	20	0.00	-4	-4.51	29.20	1	7	0	-351	-659	-2	
65888	20	0.00	-4	-4.69	29.20	1	7	0	-250	-420	46	
66001	20	0.00	-4	-4.60	29.20	1	7	0	-258	-467	-23	
66112	20	0.00	-4	-4.69	29.20	0	7	0	-295	-299	5	
66225	20	0.00	-4	-4.69	29.20	1	7	0	-238	-414	23	
66336	20	0.00	-4	-4.69	29.20	1	7	0	-231	-326	-11	
66448	20	0.00	-4	-5.13	29.20	1	7	0	-286	-390	14	
66561	20	0.00	-4	-4.60	29.20	1	7	0	-274	-404	-19	
66673	20	0.00	-4	-5.13	29.20	1	7	0	-211	-175	16	
66785	20	0.00	-4	-4.34	29.30	1	7	0	-231	120	-13	
66897	20	0.00	-4	-5.13	29.30	1	7	0	-178	633	-63	
67015	20	0.00	-4	-4.77	29.30	0	7	0	-139	-46	-50	
67128	20	0.00	-4	-4.77	29.30	1	7	0	-315	-328	-23	
67240	20	0.00	-4	-4.77	29.30	0	7	0	-382	-935	7	
67351	20	0.00	-4	-4.77	29.30	1	7	0	-295	-860	20	
67464	20	0.00	-4	-4.95	29.30	1	7	0	-315	-720	-3	
67575	20	0.00	-4	-4.86	29.30	1	7	0	-329	-418	-12	
67687	20	0.00	-4	-4.25	29.30	1	7	0	-167	96	34	
67800	20	0.00	-4	-4.69	29.30	1	7	0	-231	-254	-8	
67911	20	0.00	-4	-4.86	29.30	1	7	0	-379	-752	-23	
68023	20	0.00	-4	-4.51	29.30	1	7	0	-289	-470	-13	
68136	20	0.00	-4	-4.34	29.30	1	7	0	-134	178	-50	
68254	20	0.00	-4	-4.69	29.30	1	7	0	-217	183	-44	
68366	20	0.00	-4	-4.77	29.30	0	7	0	-247	176	1	
68479	20	0.00	-4	-4.69	29.30	0	7	0	-209	-537	-33	
68590	20	0.00	-4	-4.86	29.30	1	7	0	-242	-631	-25	
68703	20	0.00	-4	-4.95	29.30	1	7	0	-330	-130	10	
68815	20	0.00	-4	-4.60	29.30	1	7	0	-212	-167	-19	
68926	20	0.00	-4	-4.34	29.30	1	7	0	-198	-68	9	
69039	20	0.00	-4	-4.77	29.30	1	7	0	-305	-357	-5	
69150	20	0.00	-4	-4.69	29.30	1	7	0	-280	-485	-30	
69262	20	0.00	-4	-4.86	29.30	1	7	0	-197	-256	-11	
69381	20	0.00	-4	-5.38	29.30	1	7	0	-346	-728	-18	
69493	20	0.00	-4	-4.86	29.30	1	7	0	-362	-809	-45	
69606	20	0.00	-4	-4.60	29.30	1	7	0	-200	-213	24	
69718	20	0.00	-4	-4.60	29.30	1	7	0	-227	-240	-35	
69881	20	0.00	-4	-4.86	29.30	1	7	0	-365	-803	-10	
69992	20	0.00	-4	-5.13	29.30	0	7	0	-220	-485	18	
70105	20	0.00	-4	-4.86	29.30	1	7	0	-286	-673	-36	
70216	20	0.00	-4	-5.04	29.30	1	7	0	-360	-764	3	
70328	20	0.00	-4	-4.77	29.30	1	7	0	-201	-308	-4	
70441	20	0.00	-4	-4.77	29.30	1	7	0	-180	112	-38	
70559	20	0.00	-4	-5.04	29.30	0	7	0	-314	-214	-21	
70671	20	0.00	-4	-5.04	29.30	1	7	0	-234	-239	4	
70783	20	0.00	-4	-5.04	29.30	1	7	0	-195	-103	-45	
70895	20	0.00	-4	-4.69	29.30	1	7	0	-313	-419	4	
71007	20	0.00	-4	-4.95	29.30	1	7	0	-268	-301	-15	
71119	20	0.00	-4	-5.04	29.30	1	7	0	-163	80	-11	
71231	20	0.00	-4	-4.77	29.30	1	7	0	-237	-75	4	
71343	20	0.00	-4	-4.86	29.30	1	7	0	-342	-468	-31	
71454	20	0.00	-4	-4.77	29.30	1	7	0	-235	-272	-31	
71567	20	0.00	-4	-4.86	29.30	1	7	0	-206	-291	9	
71680	20	0.00	-4	-5.13	29.30	1	7	0	-336	-602	-9	
71798	20	0.00	-4	-5.13	29.30	1	7	0	-233	-183	7	
71910	20	0.00	-4	-4.95	29.30	1	7	0	-117	151	9	
72022	20	0.00	-4	-4.86	29.30	1	7	0	-249	-105	-43	
72134	20	0.00	-5	-5.38	29.30	1	7	0	-334	-299	-27	
72246	20	0.00	-5	-5.04	29.30	1	7	0	-192	-162	10	
72358	20	0.00	-5	-5.73	29.30	1	7	0	-244	-398	-24	
72470	20	0.00	-5	-5.13	29.30	0	7	0	-357	-707	-31	
72582	20	0.00	-5	-5.13	29.30	1	7	0	-266	-260	28	
72694	20	0.00	-5	-5.21	29.30	1	7	0	-197	-166	-49	
72806	20	0.00	-5	-5.38	29.30	1	7	0	-320	-361	-18	
72925	20	0.00	-5	-5.13	29.30	1	7	0	-265	-146	34	
73036	20	0.00	-5	-5.21	29.30	1	7	0	-170	-63	-41	
73149	20	0.00	-5	-4.77	29.30	1	7	0	-296	-336	-41	
73261	20	0.00	-5	-4.69	29.30	1	7	0	-302	-339	22	
73372	20	0.00	-5	-5.04	29.40	1	7	0	-180	-99	-4	
73485	20	0.00	-5	-5.04	29.40	1	7	0	-239	-325	-29	
73598	20	0.00	-4	-4.86	29.40	1	7	0	-347	-528	5	
73709	20	0.00	-4	-4.95	29.40	1	7	0	-235	-323	29	
73821	20	0.00	-5	-5.38	29.40	1	7	0	-205	-207	-6	
73933	20	0.00	-5	-5.13	29.40	0	7	0	-293	-277	22	
74045	20	0.00	-4	-4.69	29.40	1	7	0	-300	-675	-4	
74164	20	0.00	-4	-4.86	29.40	0	7	0	-167	-178	-73	
74276	20	0.00	-4	-4.69	29.40	0	7	0	-274	-603	38	
74388	20	0.00	-5	-5.38	29.40	0	7	0	-318	-892	-85	
74500	20	0.00	-5	-5.30	29.40	1	7	0	-207	-323	-38	
74611	20	0.00	-5	-5.04	29.40	1	7	0	-200	-129	23	
74724	20	0.00	-5	-5.13	29.40	-1	15	3	-1706	6515	492	
74836	20	0.00	-4	-4.60	29.40	0	15	-1	239	18972	111	
74948	20	0.00	-5	-7.13	29.50	-2	15	0	954	1990	-2560	
75060	20	0.00	-4	-3.29	29.50	-10	15	-2	2248	-17199	-5217	
75173	20	0.00	0	15.34	29.50	4	15	1	185	-16726	-3981	
75307	40	0.00	8	44.36	29.40	-3	15	0	-2429	-21888	4924	
75426	40	0.00	17	54.81	29.40	-2	-9	1	961	-24240	-5613	
75547	40	0.00	25	59.91	29.40	4	-9	0	-969	-25196	2367	
75670	40	0.00	33	62.46	29.50	-2	-8	1	1993	-23183	246	
75842	40	0.00	39	64.40	29.70	1	-8	0	-1374	-21762	979	
75965	40	0.00	45	67.30	29.80	-2	-7	1	1680	-21736	754	
76087	40	0.00	50	72.76	29.70	0	-6	2	-1236	-18780	-1294	
76209	40	0.00	56	77.78	29.70	0	-6	0	-746	-18731	164	
76335	40	0.00	61	81.92	29.70	0	-5	0	709	-19171	540	
76467	40	0.00	66	87.29	29.70	0	-5	0	889	-18438	576	
76592	40	0.00	71	91.61	29.60	1	-4	0	-259	-17502	534	
76717	40	0.00	76	96.46	29.60	0	-4	0	-279	-16611	820	
76843	40	0.00	81	100.96	29.50	0	-4	0	1393	-16756	821	
76969	40	0.00	86	105.91	29.50	0	-4	1	65	-13876	1176	
77097	40	0.00	91	111.30	29.40	0	-3	0	-1102	-12617	678	
77223	40	0.00	96	116.60	29.30	0	-3	0	-775	-11531	518	
77350	40	0.00	101	121.81	29.20	0	-2	0	-853	-11520	719	
77477	40	0.00	106	127.83	29.10	0	-3	0	-475	-11695	1105	
77606	40	0.00	111	133.05	29.00	0	-2	0	806	-11729	1930	
77741	40	0.00	117	139.34	28.90	0	-2	0	1889	-9593	1259	
77869	40	0.00	122	142.71	28.80	0	-2	1	-270	-8479	-709	
77998	40	0.00	127	148.12	28.70	1	-2	0	-570	-8051	-105	
78127	40	0.00	132	151.22	28.70	0	-1	0	1411	-8819	1248	
78255	40	0.00	136	153.97	28.70	0	-1	0	1156	-8248	916	
78384	40	0.00	140	155.30	28.70	0	-1	0	-602	-6401	236	
78512	40	0.00	144	158.85	28.70	0	-1	0	-928	-5909	-390	
78641	40	0.00	147	161.69	28.70	0	0	0	-167	-5997	-856	
78769	40	0.00	151	165.42	28.60	0	0	0	300	-5866	-636	
78904	40	0.00	154	167.20	28.60	0	0	0	842	-5584	-223	
79033	40	0.00	157	167.64	28.70	0	0	0	774	-4991	-149	
79162	40	0.00	159	168.44	28.80	0	0	0	435	-4536	-295	
79291	40	0.00	161	169.15	28.80	0	0	0	-76	-3889	-432	
79419	40	0.00	163	170.39	28.80	0	0	0	-50	-3301	-846	
79548	40	0.00	164	171.91	28.90	0	0	0	113	-3182	-1144	
79676	40	0.00	166	172.70	28.90	0	0	0	313	-3137	-1634	
79805	40	0.00	167	173.50	28.90	0	0	0	444	-2732	-1708	
79933	40	0.00	169	174.13	28.90	0	0	0	681	-2708	-1776	
80062	40	0.00	170	175.11	28.90	0	0	0	687	-2205	-1766	
80197	40	0.00	171	176.17	28.90	0	0	0	797	-2028	-2206	
80325	40	0.00	172	177.06	28.90	0	0	0	905	-1448	-2391	
80454	40	0.00	173	177.60	28.90	0	0	0	1004	-1208	-2570	
80582	40	0.00	174	178.40	28.90	0	0	0	1126	-2369	-2561	
80711	40	0.00	175	178.31	28.90	0	0	0	1222	-5641	-2147	
80840	40	0.00	175	178.31	29.00	0	0	0	1074	-10050	-1434	
80969	40	0.00	176	177.33	29.00	0	0	0	735	-11356	-138	
81097	40	0.00	176	176.26	29.10	0	0	0	883	-4743	920	
81226	40	0.00	176	175.46	29.10	0	0	0	728	8188	1536	
81362	40	0.00	175	175.64	29.10	-1	0	0	462	17530	1685	
81490	40	0.00	176	177.15	29.00	-1	0	0	659	10929	1406	
81619	40	0.00	176	178.13	29.00	-1	0	-1	996	3073	585	
81747	40	0.00	176	177.95	28.90	-2	0	-1	204	-2214	-958	
81876	40	0.00	177	177.77	28.90	-2	0	-1	-985	-5900	-2948	
82005	40	0.00	176	176.70	28.90	-3	0	0	-2682	-12752	-4462	
82133	40	0.00	176	174.48	29.00	-3	0	0	-5274	-12114	-4506	
82262	40	0.00	175	173.15	29.00	-4	0	1	-8901	-10493	-2759	
82391	60	0.00	175	172.97	29.00	-4	0	4	-9524	-10139	-1121	
82573	60	0.00	174	173.33	28.90	-4	0	5	-13269	25026	9061	
82699	60	0.00	174	172.62	28.80	-6	0	0	-17842	32767	8705	
82825	60	0.00	174	177.06	28.50	-2	0	-4	-10866	32767	3217	
82950	60	0.00	174	174.75	28.50	0	0	-4	-8393	32767	1211	
83076	60	0.00	172	165.33	28.80	0	15	-16	-32768	-4789	10335	
83201	60	0.00	170	161.78	28.90	5	15	5	-7372	20192	-31154	
83327	60	0.00	168	160.00	28.90	-11	13	-4	-11054	24862	-7044	
83453	60	0.00	166	157.16	29.00	-2	8	1	-10890	32767	5781	
83578	60	0.00	164	156.36	29.00	-4	9	2	-3438	32767	9867	
83710	60	0.00	162	156.27	29.00	0	7	0	-8055	32767	13684	
83835	60	0.00	161	157.34	28.90	2	4	0	-9107	32767	64	
83961	60	0.00	161	161.25	28.70	-3	7	7	14916	32678	4871	
84085	60	0.00	163	169.95	28.20	2	7	0	17231	20669	18764	
84211	60	0.00	164	167.37	28.40	5	8	0	12021	27162	8698	
84336	60	0.00	163	163.64	28.50	2	7	0	9446	32767	1526	
84461	60	0.00	162	157.43	28.80	0	7	0	7334	32767	2131	
84587	60	0.00	160	154.06	29.00	0	7	-1	1249	32767	4062	
84713	60	0.00	159	153.26	29.00	0	7	0	-6461	24582	979	
84845	60	0.00	157	152.28	29.00	-1	7	1	-4407	22811	-1345	
84970	60	0.00	156	151.84	29.00	-2	6	2	-63	24417	5032	
85095	60	0.00	155	152.46	29.00	-2	6	0	148	27736	10487	
85221	60	0.00	155	151.66	29.00	0	7	1	-2601	32767	10547	
85346	60	0.00	154	152.64	28.90	-1	7	1	1695	32767	7962	
85472	60	0.00	155	157.78	28.60	-1	9	-1	471	32767	13932	
85597	60	0.00	156	161.87	28.40	6	8	-3	-8917	32767	9976	
85722	60	0.00	157	159.38	28.40	3	8	0	-7506	32767	-6848	
85848	60	0.00	156	152.99	28.70	0	8	1	4749	32767	-10042	
85973	60	0.00	154	149.00	28.90	0	8	0	7335	32767	-2432	
86105	60	0.00	153	148.38	28.90	0	8	-1	2706	32767	191	
86230	60	0.00	152	147.49	28.90	-2	8	-1	857	32767	4928	
86356	60	0.00	151	147.85	28.90	0	8	-2	-5737	32767	7937	
86482	60	0.00	150	148.47	28.80	1	7	-1	-14053	28597	5186	
86607	60	0.00	151	151.66	28.70	3	8	2	-12291	31768	-6852	
86732	60	0.00	151	153.52	28.50	0	8	3	3391	31277	-11600	
86857	60	0.00	152	155.21	28.40	0	9	1	15890	32767	-4261	
86983	60	0.00	153	156.90	28.30	0	10	0	17974	32767	3786	
87108	60	0.00	153	153.35	28.40	-1	10	-2	10566	32767	13140	
87240	60	0.00	151	146.87	28.80	1	8	-4	-8325	32767	12694	
87366	70	0.00	150	143.42	28.90	3	7	-2	-19303	24645	18	
87494	70	0.00	148	143.06	28.90	2	7	0	-18136	25317	-15056	
87623	70	0.00	147	142.09	28.90	0	9	2	-4324	29164	-22867	
87752	70	0.00	146	141.47	28.90	-2	7	2	12867	32767	-12936	
87880	70	0.00	145	141.29	28.80	-2	7	-1	16528	30961	4823	
88009	70	0.00	144	141.20	28.80	-1	9	-2	6567	27105	15157	
88134	70	0.00	143	141.02	28.80	0	8	-2	-4121	21146	16931	
88260	70	0.00	143	140.76	28.80	0	8	-2	-12941	18349	13107	
88392	70	0.00	142	140.67	28.70	3	9	-1	-19613	15633	2199	
88518	70	0.00	142	141.11	28.70	4	9	1	-17455	20911	-14627	
88643	70	0.00	142	141.64	28.70	0	7	2	-2989	24418	-23940	
88769	70	0.00	142	145.45	28.50	-3	7	2	13211	27578	-13769	
88894	70	0.00	144	152.19	28.10	-3	8	0	15816	22449	3314	
89071	70	0.00	145	146.70	28.30	0	7	-1	6094	19854	16470	
89196	70	0.00	145	146.08	28.30	0	9	-1	-420	19395	16428	
89321	70	0.00	145	145.28	28.40	0	8	-3	-12561	13544	13387	
89447	70	0.00	145	145.63	28.30	2	7	-2	-21647	5793	7580	
89579	70	0.00	145	146.70	28.20	4	7	1	-21535	9980	-6826	
89704	70	0.00	146	149.18	28.10	1	7	2	-10691	17873	-18864	
89830	70	0.00	146	146.25	28.20	-1	6	2	4296	21030	-19263	
89955	70	0.00	145	142.62	28.40	-1	6	0	10812	21623	-10514	
90081	70	0.00	144	139.87	28.50	-2	7	0	12290	19733	-601	
90207	70	0.00	143	137.39	28.60	-2	7	0	11875	24136	10135	
90332	70	0.00	141	135.89	28.60	-2	8	-2	4110	22762	20748	
90458	70	0.00	139	133.58	28.70	1	8	-1	-7788	15031	20355	
90583	70	0.00	138	131.90	28.80	3	7	-1	-14931	15616	10437	
90715	70	0.00	136	130.84	28.80	4	7	0	-14918	17596	-4378	
90841	70	0.00	135	130.31	28.80	3	8	1	-7579	25230	-21237	
90966	70	0.00	134	129.87	28.80	0	8	0	5296	26472	-24467	
91092	70	0.00	133	129.07	28.70	-3	8	0	14412	27662	-10802	
91217	70	0.00	132	129.25	28.70	-2	6	-1	10714	20127	3700	
91343	70	0.00	131	128.54	28.70	-2	7	-1	4417	15998	12252	
91467	70	0.00	131	128.36	28.70	-1	8	-2	-2932	9626	17470	
91593	70	0.00	130	127.74	28.70	0	7	-1	-9126	6024	18214	
91718	70	0.00	129	127.03	28.70	2	7	-1	-11520	7815	13000	
91850	70	0.00	129	126.15	28.70	3	7	-1	-13591	9162	1399	
91976	70	0.00	128	126.06	28.70	3	7	0	-14768	14563	-11345	
92102	70	0.00	127	125.88	28.70	1	8	1	-11320	16984	-22167	
92227	70	0.00	127	125.35	28.60	-2	7	2	988	18758	-20633	
92352	70	0.00	127	125.80	28.60	-3	8	1	11362	18943	-6884	
92478	70	0.00	126	125.18	28.60	-2	9	1	17374	23744	6273	
92603	70	0.00	126	124.73	28.60	-2	9	0	14375	29902	20226	
92729	70	0.00	126	126.24	28.50	0	8	-3	-3813	20233	25851	
92854	70	0.00	126	128.27	28.40	4	5	-2	-18744	11637	12404	
92986	70	0.00	127	131.99	28.20	4	6	0	-20788	961	-4959	
93112	70	0.00	127	128.63	28.30	4	7	0	-17443	10022	-19026	
93237	70	0.00	127	127.30	28.40	0	7	1	-6582	15858	-26802	
93363	70	0.00	128	129.69	28.20	-3	8	1	4324	17728	-18081	
93488	70	0.00	129	134.56	28.00	-2	7	0	11725	20012	-4841	
93613	70	0.00	129	132.17	28.00	-2	6	0	14303	25714	5784	
93739	70	0.00	130	130.13	28.10	-3	6	-3	6158	20068	20604	
93865	70	0.00	129	125.97	28.30	0	8	-3	-10034	3619	24195	
93990	70	0.00	128	125.88	28.30	2	7	-1	-17898	717	17564	
94122	70	0.00	128	125.97	28.20	3	7	0	-18235	3580	7324	
94248	70	0.00	128	128.54	28.10	2	7	0	-15401	8653	-3449	
94373	70	0.00	128	130.04	28.00	2	6	1	-11390	13072	-11498	
94498	70	0.00	128	129.33	28.00	1	7	2	-2601	17082	-18069	
94623	70	0.00	128	127.12	28.10	0	7	1	9212	21259	-17574	
94749	70	0.00	127	123.58	28.20	-2	6	0	17743	23352	-8203	
94874	70	0.00	126	121.37	28.30	-3	7	-2	14530	19493	6201	
94999	70	0.00	124	119.16	28.40	-2	7	-2	4973	11277	15652	
95125	70	0.00	123	118.10	28.40	-1	7	-1	-2259	1686	19898	
95257	70	0.00	122	116.69	28.50	0	8	-2	-6747	983	19344	
95382	80	0.00	120	115.27	28.50	1	8	-2	-12162	-1525	14505	
